"Time (s)","Acceleration x (m/s^2)","Acceleration y (m/s^2)","Acceleration z (m/s^2)"
0.000000000E0,1.856232166E0,-1.028913707E-1,7.645068169E0
0.000000000E0,1.856232166E0,-1.028913707E-1,7.645068169E0
0.000000000E0,1.856232166E0,-1.028913707E-1,7.645068169E0
4.929330000E-4,1.856232166E0,-1.028913707E-1,7.645068169E0
2.992933000E-3,1.856232166E0,-1.028913707E-1,7.645068169E0
5.492933000E-3,1.856232166E0,-1.028913707E-1,7.645068169E0
7.992933000E-3,1.856232166E0,-1.028913707E-1,7.645068169E0
1.049293300E-2,1.856232166E0,-1.028913707E-1,7.645068169E0
1.299293300E-2,1.856232166E0,-1.028913707E-1,7.645068169E0
1.548236000E-2,1.813161373E0,-1.698904037E-1,7.678567886E0
1.797178700E-2,1.798804402E0,-1.938186288E-1,7.697710514E0
2.046121400E-2,1.770090580E0,-2.321037948E-1,7.702496052E0
2.295064100E-2,1.794018745E0,-3.421736360E-1,7.750352383E0
2.544001600E-2,1.822732687E0,-3.852444589E-1,7.836493969E0
2.792944300E-2,1.889731646E0,-4.187439680E-1,7.831708431E0
3.041616200E-2,1.908874273E0,-3.565305769E-1,7.798209190E0
3.292173500E-2,1.923231244E0,-3.661018610E-1,7.798209190E0
3.541105800E-2,1.971685886E0,-3.613162339E-1,7.826922894E0
3.790038000E-2,1.947757602E0,-3.996013701E-1,7.860422611E0
4.038975500E-2,1.918445587E0,-3.517449200E-1,7.917850018E0
4.287907800E-2,1.880160451E0,-4.043870270E-1,7.960920811E0
4.536845300E-2,1.861017823E0,-3.230310678E-1,7.989634991E0
4.785782800E-2,1.822732687E0,-2.991028428E-1,7.999206066E0
5.035798500E-2,1.679163337E0,-2.656033039E-1,8.003992081E0
5.284736000E-2,1.631306887E0,-2.512463629E-1,7.980063438E0
5.533668300E-2,1.559522152E0,-2.416750938E-1,7.984848976E0
5.782605800E-2,1.535593987E0,-1.890329868E-1,7.965706348E0
6.031543300E-2,1.482951880E0,-1.651047617E-1,8.003992081E0
6.280475500E-2,1.468594909E0,-1.220339537E-1,8.075776100E0
6.529361000E-2,1.516451359E0,-1.220339537E-1,8.137989998E0
6.778298500E-2,1.521237016E0,-7.896314561E-2,8.161917686E0
7.026491200E-2,1.454237938E0,-5.503492057E-2,8.185846329E0
7.275428700E-2,1.449452281E0,-6.460621208E-2,8.204988480E0
7.523574500E-2,1.492523074E0,-5.503492057E-2,8.267202377E0
7.772512000E-2,1.540379524E0,-1.674975827E-2,8.291130066E0
8.023027600E-2,1.573879123E0,-1.196411345E-2,8.382058144E0
8.271959900E-2,1.616949916E0,1.196411345E-2,8.444271088E0
8.520897400E-2,1.645663738E0,6.939185411E-2,8.526225090E0
8.769834900E-2,1.669592023E0,9.810572863E-2,8.626724243E0
9.018767200E-2,1.703091502E0,1.704886109E-1,8.674580574E0
9.267704700E-2,1.645663738E0,1.704886109E-1,8.789435387E0
9.516637000E-2,1.597807288E0,1.657029688E-1,8.818149567E0
9.765574500E-2,1.497308731E0,1.417747438E-1,8.875576973E0
1.001257450E-1,1.415952802E0,1.124626622E-1,9.009575844E0
1.025762140E-1,1.348953724E0,5.503492057E-2,9.086145401E0
1.050641830E-1,1.334596872E0,7.417750359E-2,9.119645119E0
1.075521510E-1,1.325025558E0,5.982056633E-2,9.167501450E0
1.100401200E-1,1.392024517E0,2.153540403E-2,9.244071960E0
1.125280890E-1,1.468594909E0,-2.632104978E-2,9.244071960E0
1.150160580E-1,1.526022673E0,-8.853443712E-2,9.315856934E0
1.175637140E-1,1.511665702E0,-1.555334777E-1,9.330213547E0
1.200516830E-1,1.540379524E0,-1.651047617E-1,9.363713264E0
1.225331930E-1,1.526022673E0,-2.177468538E-1,9.363713264E0
1.250211620E-1,1.430309772E0,-2.273181528E-1,9.373284340E0
1.275091300E-1,1.296311617E0,-2.416750938E-1,9.468997002E0
1.299970990E-1,1.219741344E0,-2.608176768E-1,9.498309135E0
1.324850680E-1,1.152742267E0,-2.895315289E-1,9.546165466E0
1.349730370E-1,1.171884894E0,-2.991028428E-1,9.646664619E0
1.374610050E-1,1.267597795E0,-2.847459018E-1,9.699306488E0
1.399489740E-1,1.358525038E0,-3.182454109E-1,9.718449593E0
1.424484010E-1,1.454237938E0,-3.373879790E-1,9.771091461E0
1.449365780E-1,1.516451359E0,-3.278166950E-1,9.828518867E0
1.474248080E-1,1.578664780E0,-2.608176768E-1,9.842875481E0
1.499130370E-1,1.602592945E0,-1.698904037E-1,9.828518867E0
1.524012660E-1,1.540379524E0,-1.172483116E-1,9.857233047E0
1.548895470E-1,1.482951880E0,-4.546362907E-2,9.790233612E0
1.573777760E-1,1.392024517E0,-1.196411345E-2,9.708877563E0
1.598660050E-1,1.382453322E0,-7.178467698E-3,9.651450157E0
1.623455370E-1,1.382453322E0,4.067798331E-2,9.503094673E0
1.648335050E-1,1.358525038E0,1.674975827E-2,9.301499367E0
1.673215260E-1,1.258026481E0,-1.196411345E-2,9.153144836E0
1.698095470E-1,1.176670551E0,-4.067798331E-2,9.000003815E0
1.722975160E-1,1.147956610E0,-4.067798331E-2,8.894720078E0
1.747855370E-1,1.071386337E0,-9.810572863E-2,8.751151085E0
1.772735580E-1,1.018744230E0,-8.853443712E-2,8.645866394E0
1.797615780E-1,9.278169870E-1,-1.220339537E-1,8.526225090E0
1.822668390E-1,8.410771489E-1,-1.124626622E-1,8.521439552E0
1.847552240E-1,7.884350419E-1,-1.268195957E-1,8.516654015E0
1.872436620E-1,7.836494446E-1,-1.507478207E-1,8.483154297E0
1.897320990E-1,7.884350419E-1,-1.698904037E-1,8.478368759E0
1.922205370E-1,8.027920127E-1,-2.799602449E-1,8.464012146E0
1.947090260E-1,8.554341197E-1,-3.756731451E-1,8.434700012E0
1.971974640E-1,9.373882413E-1,-5.144568682E-1,8.434700012E0
1.996859010E-1,1.085743308E0,-6.197410822E-1,8.382058144E0
2.021682970E-1,1.238883972E0,-6.867401004E-1,8.353343964E0
2.046565260E-1,1.411167145E0,-7.968099117E-1,8.271987915E0
2.071448600E-1,1.526022673E0,-8.350951076E-1,8.281558990E0
2.096331410E-1,1.640878081E0,-9.505487680E-1,8.276773453E0
2.121214220E-1,1.722234130E0,-9.649057388E-1,8.310273170E0
2.146097030E-1,1.750947952E0,-9.888339639E-1,8.377271652E0
2.170980370E-1,1.986042738E0,-1.070189953E0,8.401200294E0
2.195863180E-1,2.277967215E0,-1.127617717E0,8.492725372E0
2.220853800E-1,2.684746981E0,-1.242473125E0,8.545368195E0
2.245738700E-1,2.900100946E0,-1.333400369E0,8.588438988E0
2.270624640E-1,2.713460922E0,-1.347757339E0,8.583653450E0
2.295510050E-1,2.536391973E0,-1.275972724E0,8.698508263E0
2.320395990E-1,2.297109842E0,-1.180259824E0,8.770293236E0
2.345281410E-1,2.033899307E0,-9.792626500E-1,8.626724243E0
2.370166830E-1,1.655235052E0,-7.872386575E-1,8.377271652E0
2.395052760E-1,1.468594909E0,-5.335994363E-1,8.334200859E0
2.420082970E-1,1.392024517E0,-3.182454109E-1,8.420342445E0
2.444972030E-1,1.382453322E0,-1.459621787E-1,8.425128937E0
2.469861100E-1,1.339382529E0,1.220339537E-1,8.405985832E0
2.494750160E-1,1.348953724E0,2.279163599E-1,8.291130066E0
2.519639740E-1,1.238883972E0,3.427718580E-1,8.157132149E0
2.544528800E-1,1.124028444E0,3.810569942E-1,8.066205025E0
2.569418390E-1,9.517452121E-1,4.671986103E-1,8.027919769E0
2.594307450E-1,7.501499057E-1,5.198407173E-1,8.104490280E0
2.619406410E-1,5.730810165E-1,6.011967063E-1,8.276773453E0
2.644300160E-1,3.385843933E-1,7.734799385E-1,8.554939270E0
2.669194950E-1,5.144568533E-2,9.314061999E-1,8.918647766E0
2.694089220E-1,-2.650051117E-1,1.094118118E0,9.320642471E0
2.718984010E-1,-6.143572330E-1,1.176072359E0,9.795019150E0
2.743878280E-1,-9.541380405E-1,1.276570916E0,1.031186962E1
2.768773080E-1,-1.251446247E0,1.314856052E0,1.076231766E1
2.793667350E-1,-1.538584948E0,1.276570916E0,1.106859970E1
2.818314740E-1,-1.787438512E0,1.204786181E0,1.132223892E1
2.843202760E-1,-1.935793519E0,1.084546804E0,1.141316605E1
2.868091300E-1,-1.844866276E0,9.218349457E-1,1.155194950E1
2.892979330E-1,-1.600798368E0,7.495517135E-1,1.166261768E1
2.917867870E-1,-1.213161111E0,5.389832854E-1,1.164347458E1
2.942755890E-1,-6.765705943E-1,2.470589429E-1,1.135573769E1
2.967644430E-1,-1.597209126E-1,-1.220339537E-1,1.082453156E1
2.992532450E-1,3.720839322E-1,-4.139583111E-1,1.026879883E1
3.017661100E-1,8.943174481E-1,-5.718846321E-1,9.771091461E0
3.042554850E-1,1.310668588E0,-7.633104324E-1,9.220144272E0
3.067449120E-1,1.746162295E0,-8.829515576E-1,8.434700012E0
3.092343390E-1,2.081755638E0,-1.089332461E0,7.616354465E0
3.117237660E-1,2.263610125E0,-1.165902853E0,7.003193855E0
3.142131930E-1,2.306680918E0,-1.228116274E0,6.591628075E0
3.167026200E-1,2.282752752E0,-1.213759303E0,6.375676155E0
3.191920990E-1,2.105684042E0,-1.213759303E0,6.294320107E0
3.216952760E-1,1.841875196E0,-1.127617717E0,6.260820389E0
3.241850160E-1,1.511665702E0,-9.840483069E-1,6.414559364E0
3.266748080E-1,1.171884894E0,-7.968099117E-1,6.548557281E0
3.291645990E-1,9.613165259E-1,-6.388836503E-1,6.567699909E0
3.316543390E-1,7.405785918E-1,-4.570291340E-1,6.548557281E0
3.341441300E-1,6.927221417E-1,-2.895315289E-1,6.543771744E0
3.366339220E-1,7.453642488E-1,-1.651047617E-1,6.582056999E0
3.391237140E-1,8.793623447E-1,-5.503492057E-2,6.739983082E0
3.415759530E-1,1.080957651E0,-1.674975827E-2,6.840481758E0
3.440647550E-1,1.272383451E0,6.939185411E-2,7.022336483E0
3.465536100E-1,1.535593987E0,1.417747438E-1,7.381259441E0
3.490424120E-1,1.688734531E0,2.231307179E-1,7.898707390E0
3.515312660E-1,1.884945989E0,3.188436031E-1,8.420342445E0
3.540201200E-1,2.048256159E0,3.714857101E-1,8.918647766E0
3.565089220E-1,2.364108801E0,4.049852192E-1,9.565308571E0
3.589977760E-1,2.737389088E0,3.571287692E-1,1.014915752E1
3.614708490E-1,3.154338360E0,3.954139352E-1,1.119781208E1
3.639592350E-1,3.570689678E0,3.236292601E-1,1.252881908E1
3.664476720E-1,3.757329702E0,2.614158690E-1,1.318983650E1
3.689361100E-1,3.853042603E0,1.076770201E-1,1.289312649E1
3.714245470E-1,3.771686792E0,1.196411345E-2,1.210289669E1
3.739129850E-1,3.565903902E0,-1.794617027E-1,1.125523949E1
3.764014220E-1,3.250051260E0,-2.895315289E-1,1.069053364E1
3.788898600E-1,2.876172781E0,-4.713860750E-1,1.054217815E1
3.814024120E-1,2.455035925E0,-6.101697683E-1,1.060439205E1
3.838913700E-1,1.933400750E0,-7.585247755E-1,1.070010471E1
3.863804330E-1,1.348953724E0,-8.255237937E-1,1.059960651E1
3.888694430E-1,6.496513486E-1,-9.074779749E-1,1.029272652E1
3.913585050E-1,-7.298108935E-2,-9.314061999E-1,9.924231529E0
3.938475680E-1,-6.813562512E-1,-9.074779749E-1,9.574879646E0
3.963365780E-1,-1.025922656E0,-8.590233326E-1,9.258428574E0
3.988256410E-1,-1.217946768E0,-8.015955687E-1,9.105288506E0
4.013072550E-1,-1.299302697E0,-8.590233326E-1,9.057432175E0
4.037960580E-1,-1.332802176E0,-8.925228715E-1,9.019146919E0
4.062849120E-1,-1.428515077E0,-8.877372146E-1,8.933005333E0
4.087737660E-1,-1.543370605E0,-9.170492887E-1,8.765507698E0
4.112626200E-1,-1.629512191E0,-9.649057388E-1,8.574081421E0
4.137514740E-1,-1.710868239E0,-9.649057388E-1,8.473583221E0
4.162403280E-1,-1.820937991E0,-1.003190875E0,8.343772888E0
4.187291830E-1,-1.935793519E0,-1.022333503E0,8.262416840E0
4.212506930E-1,-2.036292076E0,-1.089332461E0,8.137989998E0
4.237403280E-1,-2.170290232E0,-1.170688510E0,8.109275818E0
4.262299640E-1,-2.261815548E0,-1.223330617E0,8.066205025E0
4.287196510E-1,-2.324028969E0,-1.285543919E0,7.970492363E0
4.312093390E-1,-2.333600283E0,-1.381256819E0,7.889136314E0
4.336989740E-1,-2.300100803E0,-1.472184181E0,7.769495010E0
4.361886620E-1,-2.257030010E0,-1.558325768E0,7.578069210E0
4.386783490E-1,-2.242672920E0,-1.563111424E0,7.395616531E0
4.411579850E-1,-2.208575249E0,-1.649253011E0,7.208976269E0
4.436473600E-1,-2.194218397E0,-1.639681697E0,7.027122021E0
4.461367870E-1,-2.179861546E0,-1.673181176E0,6.797410965E0
4.486262140E-1,-2.041077614E0,-1.658824325E0,6.481558323E0
4.511156410E-1,-1.897508383E0,-1.606182218E0,6.136393547E0
4.536050160E-1,-1.624726534E0,-1.668395638E0,5.691328526E0
4.560944430E-1,-1.155135155E0,-1.725823283E0,5.293521881E0
4.585838700E-1,-7.004988194E-1,-1.821536183E0,4.977669239E0
4.610889740E-1,-2.171486616E-1,-1.922034740E0,4.738387108E0
4.635787660E-1,1.567298770E-1,-2.037488461E0,4.489533424E0
4.660685580E-1,5.108676553E-1,-2.166700840E0,4.254438877E0
4.685584010E-1,6.161518097E-1,-2.291127682E0,4.086941242E0
4.710481930E-1,5.922235847E-1,-2.401197433E0,3.967299938E0
4.735379850E-1,5.491527915E-1,-2.492124796E0,3.847658873E0
4.760278280E-1,4.342973232E-1,-2.645265341E0,3.732803345E0
4.785176200E-1,3.816552162E-1,-2.793620348E0,3.775874138E0
4.809977760E-1,5.347958803E-1,-2.970689297E0,3.799802303E0
4.834873080E-1,9.900303483E-1,-3.143570662E0,4.326821327E0
4.859768910E-1,8.602197170E-1,-3.287140131E0,4.283152580E0
4.884664740E-1,4.007977843E-1,-3.445066452E0,3.780659676E0
4.909560050E-1,1.663011760E-1,-3.674777269E0,3.474378586E0
4.934455890E-1,-1.549352705E-1,-3.870988846E0,3.335594654E0
4.959351720E-1,-3.320041299E-1,-4.086941242E0,3.138785124E0
4.984247030E-1,-4.995017350E-1,-4.316651821E0,2.971287489E0
5.009089740E-1,-6.526423693E-1,-4.555934429E0,2.631506681E0
5.033983490E-1,-6.191428304E-1,-4.819144726E0,1.860419631E0
5.058877760E-1,-8.871390224E-1,-4.809573650E0,1.913061738E0
5.083772030E-1,-1.562513232E0,-4.637290478E0,2.334796667E0
5.108666300E-1,-2.112862349E0,-4.244867325E0,2.521436930E0
5.133561100E-1,-2.630310297E0,-3.818346739E0,3.215355396E0
5.158455370E-1,-3.286541939E0,-3.574278831E0,4.925027370E0
5.183349640E-1,-4.047459602E0,-3.512065411E0,6.845267296E0
5.208219950E-1,-4.842474937E0,-3.382853031E0,8.607581139E0
5.233113180E-1,-5.489135265E0,-3.258426189E0,9.981659889E0
5.258006930E-1,-6.206982136E0,-3.114856958E0,1.125045395E1
5.282900680E-1,-7.011568546E0,-2.965903759E0,1.250967693E1
5.307794430E-1,-7.457231998E0,-2.860619545E0,1.309412384E1
5.332688180E-1,-7.663014412E0,-2.788834810E0,1.327119255E1
5.357581930E-1,-7.706085205E0,-2.745764017E0,1.323290730E1
5.382475680E-1,-7.543373585E0,-2.784049034E0,1.304626751E1
5.407421510E-1,-7.226922512E0,-2.760120869E0,1.273519993E1
5.432315780E-1,-6.705287457E0,-2.822334290E0,1.200718403E1
5.457210580E-1,-5.977271080E0,-3.000001431E0,1.088674450E1
5.482105890E-1,-5.220541000E0,-3.220141172E0,9.689735413E0
5.507000680E-1,-4.473979950E0,-3.468994617E0,8.516654015E0
5.531895990E-1,-3.765106440E0,-3.713062525E0,7.515855789E0
5.556790780E-1,-2.989233732E0,-3.942773581E0,6.601199627E0
5.581686100E-1,-2.141576290E0,-4.187439442E0,5.777470112E0
5.606599640E-1,-1.351944804E0,-4.335794449E0,5.428118229E0
5.631494950E-1,-4.899304509E-1,-4.417150497E0,5.322235584E0
5.656390260E-1,1.794617064E-2,-4.498506546E0,5.169095039E0
5.681285580E-1,3.481557071E-1,-4.450650215E0,5.159523964E0
5.706181410E-1,5.012963414E-1,-4.240081787E0,5.327021599E0
5.731076720E-1,3.385843933E-1,-3.942773581E0,5.667400360E0
5.755972030E-1,-9.212367237E-2,-3.598206997E0,6.074180126E0
5.780867870E-1,-7.244270444E-1,-3.172284603E0,6.687341213E0
5.805757970E-1,-1.462014675E0,-2.712264538E0,7.366902828E0
5.830653280E-1,-2.257030010E0,-2.195414782E0,7.989634991E0
5.855548600E-1,-3.041875839E0,-1.711466432E0,7.846065521E0
5.880443910E-1,-3.870390654E0,-1.218544960E0,7.788637638E0
5.905339220E-1,-4.598406792E0,-7.298108935E-1,8.502297401E0
5.930234530E-1,-5.306682587E0,-4.761717021E-1,9.186644554E0
5.955129850E-1,-5.809773445E0,-2.943171859E-1,1.007737255E1
5.980025160E-1,-6.206982136E0,-2.895315289E-1,1.079581738E1
6.004725160E-1,-6.388836384E0,-4.570291340E-1,1.154716396E1
6.029382970E-1,-6.461219311E0,-5.192425251E-1,1.352004623E1
6.054267350E-1,-6.394220352E0,-5.048855543E-1,1.544507217E1
6.079152240E-1,-6.418148518E0,-6.245267391E-1,1.584766483E1
6.104037140E-1,-6.187839508E0,-8.446664214E-1,1.641715622E1
6.128921510E-1,-5.929414749E0,-9.457631707E-1,1.658943939E1
6.153806410E-1,-5.670989513E0,-1.137188911E0,1.634537125E1
6.178691300E-1,-5.325825214E0,-1.247258782E0,1.589073563E1
6.203985580E-1,-5.000401020E0,-1.290329576E0,1.534457302E1
6.228879850E-1,-4.665405750E0,-1.271187067E0,1.455912971E1
6.253774640E-1,-4.363910198E0,-1.228116274E0,1.366899967E1
6.278669950E-1,-4.109673023E0,-1.146760225E0,1.270170116E1
6.303564740E-1,-3.903890133E0,-1.141974568E0,1.174875927E1
6.328460050E-1,-3.827319860E0,-1.156331539E0,1.101117134E1
6.353354850E-1,-3.769891977E0,-1.213759303E0,1.049372387E1
6.378250160E-1,-3.822534084E0,-1.175474167E0,9.919445992E0
6.403111620E-1,-3.985246181E0,-1.189831018E0,9.589237213E0
6.428005370E-1,-4.143172264E0,-1.041476011E0,9.411569595E0
6.452899640E-1,-4.359124660E0,-9.409775138E-1,9.382855415E0
6.477793390E-1,-4.574478626E0,-8.398807645E-1,9.354142189E0
6.502687660E-1,-4.741976261E0,-7.058826685E-1,9.277571678E0
6.527581930E-1,-4.852046013E0,-6.053841114E-1,9.081359863E0
6.552476200E-1,-4.861617565E0,-5.383850932E-1,8.870791435E0
6.577369950E-1,-4.785047054E0,-5.240281820E-1,8.679366112E0
6.602324640E-1,-4.627120972E0,-5.623133183E-1,8.540582657E0
6.627219950E-1,-4.426123619E0,-6.675975323E-1,8.439485550E0
6.652115780E-1,-4.133601189E0,-9.314061999E-1,8.286344528E0
6.677011100E-1,-3.860819340E0,-1.118046403E0,8.161917686E0
6.701906930E-1,-3.631108284E0,-1.242473125E0,7.898707390E0
6.726802760E-1,-3.473181963E0,-1.419542074E0,7.635497093E0
6.751698080E-1,-3.540181160E0,-1.496112347E0,7.506284714E0
6.776593910E-1,-3.501895905E0,-1.639681697E0,7.390830994E0
6.801416830E-1,-3.645465374E0,-1.721037745E0,7.242475986E0
6.826310050E-1,-3.688536167E0,-1.759322882E0,7.089335442E0
6.851203800E-1,-3.750749588E0,-1.898106575E0,6.711269379E0
6.876098080E-1,-3.755535126E0,-2.032702923E0,6.136393547E0
6.900991830E-1,-4.066602230E0,-2.037488461E0,5.949753284E0
6.925885580E-1,-4.095315933E0,-2.142772675E0,5.557330608E0
6.950779330E-1,-4.057030678E0,-2.243271112E0,5.049454212E0
6.975673080E-1,-4.243670940E0,-2.271985054E0,4.881956577E0
7.000561620E-1,-4.267599106E0,-2.329412937E0,4.341178417E0
7.025454850E-1,-4.253242016E0,-2.410768747E0,3.550948858E0
7.050348600E-1,-4.147958279E0,-2.463410854E0,1.783849239E0
7.075242350E-1,-5.091328144E0,-2.415554523E0,7.160521746E-1
7.100136100E-1,-5.718846321E0,-2.506481647E0,1.424925923E0
7.125029330E-1,-6.547360897E0,-2.573480844E0,1.793420553E0
7.149923080E-1,-7.289135933E0,-2.645265341E0,2.209771633E0
7.174816830E-1,-7.892725468E0,-2.678765059E0,2.947359324E0
7.199691830E-1,-8.361719131E0,-2.812762976E0,3.747160196E0
7.224584530E-1,-8.754739761E0,-2.918047190E0,4.546961308E0
7.249477760E-1,-9.113663673E0,-3.009572744E0,5.298307419E0
7.274370990E-1,-9.386445045E0,-3.143570662E0,6.055037498E0
7.299264220E-1,-9.693324089E0,-3.277568817E0,6.816553593E0
7.324157450E-1,-9.918250084E0,-3.473780155E0,7.621140003E0
7.349050680E-1,-1.010488987E1,-3.593421459E0,8.444271088E0
7.373943910E-1,-1.029631615E1,-3.823132277E0,9.220144272E0
7.398742350E-1,-1.039681435E1,-4.039084435E0,9.929018021E0
7.423632450E-1,-1.043509960E1,-4.163511276E0,1.041236782E1
7.448523080E-1,-1.046381378E1,-4.287938118E0,1.083888817E1
7.473414220E-1,-1.042074299E1,-4.316651821E0,1.111645603E1
7.498304850E-1,-1.040159988E1,-4.302295208E0,1.130309582E1
7.523195470E-1,-1.023410225E1,-4.201796532E0,1.126959610E1
7.548086620E-1,-1.010010433E1,-4.058227062E0,1.103988552E1
7.572977240E-1,-9.985248566E0,-3.923630953E0,1.057089233E1
7.597993910E-1,-9.913464546E0,-3.827918053E0,1.005823040E1
7.622887140E-1,-9.836894035E0,-3.775275946E0,9.617950439E0
7.647781410E-1,-9.664610863E0,-3.803989887E0,9.114859581E0
7.672675160E-1,-9.535398483E0,-3.823132277E0,8.569295883E0
7.697569430E-1,-9.372088432E0,-3.918845177E0,7.970492363E0
7.722463180E-1,-9.242876053E0,-4.063013077E0,7.463213921E0
7.747356930E-1,-8.989236832E0,-4.254438877E0,6.955337048E0
7.772251200E-1,-8.721240044E0,-4.354937077E0,6.457630157E0
7.797167870E-1,-8.333004951E0,-4.484149456E0,6.007181168E0
7.822061620E-1,-8.036294937E0,-4.517649174E0,5.614758492E0
7.846956410E-1,-7.615158081E0,-4.426722050E0,5.331807137E0
7.871850680E-1,-7.279564857E0,-4.259224415E0,5.173880577E0
7.896745470E-1,-6.882356167E0,-4.048655987E0,5.106881618E0
7.921639740E-1,-6.619145870E0,-3.861417532E0,5.020740032E0
7.946534530E-1,-6.480361938E0,-3.574278831E0,4.982454777E0
7.971428800E-1,-6.442076683E0,-3.296711445E0,4.920241356E0
7.996105890E-1,-6.399005890E0,-3.028715372E0,4.929812908E0
8.020994430E-1,-6.537789822E0,-2.884547710E0,4.905884743E0
8.045883490E-1,-6.710072994E0,-2.697907448E0,4.939383984E0
8.070772550E-1,-6.872784615E0,-2.568695068E0,4.982454777E0
8.095661620E-1,-7.140780926E0,-2.482553482E0,5.044668198E0
8.120550160E-1,-7.365706444E0,-2.449054003E0,5.135595798E0
8.145439220E-1,-7.629515171E0,-2.434697151E0,5.260022163E0
8.170328280E-1,-7.868797302E0,-2.492124796E0,5.437689304E0
8.195442870E-1,-8.103293419E0,-2.583052158E0,5.581258774E0
8.220336620E-1,-8.328219414E0,-2.683550596E0,5.787041664E0
8.245231410E-1,-8.491529465E0,-2.750549555E0,5.921039581E0
8.270126200E-1,-8.716454506E0,-2.918047190E0,6.040680885E0
8.295020990E-1,-8.946166039E0,-3.067000389E0,6.112465382E0
8.319915780E-1,-9.238089561E0,-3.306282759E0,6.136393547E0
8.344810050E-1,-9.501300812E0,-3.459423304E0,6.141179085E0
8.369704850E-1,-9.765109062E0,-3.593421459E0,6.122036934E0
8.394559010E-1,-1.003310490E1,-3.689134359E0,5.964110374E0
8.419452240E-1,-1.035852909E1,-3.827918053E0,5.830112457E0
8.444345990E-1,-1.061276627E1,-3.827918053E0,5.653043270E0
8.469239740E-1,-1.083290672E1,-3.851846218E0,5.509474277E0
8.494132970E-1,-1.099083233E1,-3.904488325E0,5.399404526E0
8.519026720E-1,-1.107697392E1,-3.933202267E0,5.269593716E0
8.543920470E-1,-1.094776154E1,-3.909274101E0,5.221737385E0
8.568814220E-1,-1.072283649E1,-3.952344894E0,5.169095039E0
8.593664220E-1,-1.037767220E1,-3.899702787E0,5.078167915E0
8.618555890E-1,-9.970891953E0,-3.847060680E0,5.121238708E0
8.643448600E-1,-9.549755096E0,-3.808775425E0,5.207380295E0
8.668341300E-1,-9.041878700E0,-3.732205153E0,5.331807137E0
8.693233490E-1,-8.625527382E0,-3.626920938E0,5.514259815E0
8.718126200E-1,-8.189435959E0,-3.588635683E0,5.763113499E0
8.743018910E-1,-7.763513088E0,-3.459423304E0,5.954539299E0
8.767911100E-1,-7.427919865E0,-3.339782238E0,6.155536175E0
8.792846510E-1,-7.097710133E0,-3.244069338E0,6.356533527E0
8.817739740E-1,-6.872784615E0,-3.124428272E0,6.443273067E0
8.842633490E-1,-6.604788780E0,-3.095714331E0,6.538986206E0
8.867526720E-1,-6.442076683E0,-3.047857761E0,6.586842537E0
8.892420470E-1,-6.312266350E0,-3.047857761E0,6.658627033E0
8.917314220E-1,-6.245266914E0,-3.019144058E0,6.653841496E0
8.942207450E-1,-6.254838467E0,-3.000001431E0,6.696912289E0
8.967101200E-1,-6.273981094E0,-2.995215654E0,6.735197544E0
8.992009530E-1,-6.408577442E0,-3.038286448E0,6.644270420E0
9.016902760E-1,-6.609574318E0,-3.071786165E0,6.582056999E0
9.041797030E-1,-6.834499836E0,-3.043072224E0,6.443273067E0
9.066690780E-1,-7.064210415E0,-3.038286448E0,6.356533527E0
9.091585050E-1,-7.289135933E0,-3.090928555E0,6.251249313E0
9.116478800E-1,-7.447660446E0,-3.162713289E0,6.169893265E0
9.141372550E-1,-7.643871784E0,-3.191427231E0,6.093322754E0
9.166266830E-1,-7.797012806E0,-3.224926710E0,6.055037498E0
9.191207450E-1,-7.916653633E0,-3.186641455E0,6.083751678E0
9.216101720E-1,-7.969295979E0,-3.191427231E0,6.160321712E0
9.240997030E-1,-7.983652592E0,-3.138785124E0,6.184250355E0
9.265891830E-1,-7.954938889E0,-3.033500910E0,6.318248272E0
9.290787140E-1,-7.921439171E0,-2.985046148E0,6.351747513E0
9.315682450E-1,-7.782655716E0,-2.937189817E0,6.419344902E0
9.340577240E-1,-7.682157040E0,-2.894119024E0,6.414559364E0
9.365472550E-1,-7.538587570E0,-2.860619545E0,6.395416737E0
9.390332450E-1,-7.389634609E0,-2.803191662E0,6.346961975E0
9.415226200E-1,-7.279564857E0,-2.807977438E0,6.294320107E0
9.440120470E-1,-7.088139057E0,-2.798406124E0,6.332605362E0
9.465014740E-1,-6.891927242E0,-2.784049034E0,6.400202274E0
9.489908490E-1,-6.738786697E0,-2.822334290E0,6.400202274E0
9.514802760E-1,-6.571289062E0,-2.817548752E0,6.524629116E0
9.539697030E-1,-6.384050846E0,-2.908475876E0,6.562914371E0
9.564591300E-1,-6.259624004E0,-3.014358282E0,6.610770702E0
9.589510580E-1,-6.202196121E0,-3.119642496E0,6.610770702E0
9.614404850E-1,-6.130411625E0,-3.224926710E0,6.610770702E0
9.639299640E-1,-6.149554253E0,-3.311068296E0,6.577271461E0
9.664194430E-1,-6.120840549E0,-3.311068296E0,6.625127792E0
9.689089220E-1,-6.101697922E0,-3.373281717E0,6.567699909E0
9.713984010E-1,-6.092126369E0,-3.435495138E0,6.519843578E0
9.738878800E-1,-6.001199245E0,-3.387638569E0,6.538986206E0
9.763773600E-1,-5.857629776E0,-3.330210924E0,6.519843578E0
9.788601200E-1,-5.694917679E0,-3.277568817E0,6.495915413E0
9.813493910E-1,-5.503491879E0,-3.244069338E0,6.471987247E0
9.838387140E-1,-5.374279499E0,-3.162713289E0,6.337390900E0
9.863280370E-1,-5.225326538E0,-3.090928555E0,6.279963017E0
9.888173600E-1,-5.206183910E0,-3.028715372E0,6.145965099E0
9.913066300E-1,-5.268397331E0,-3.057429075E0,6.021538258E0
9.937959530E-1,-5.364708424E0,-3.071786165E0,5.877968788E0
9.962847030E-1,-5.446064472E0,-3.105285645E0,5.810969830E0
9.987529850E-1,-5.517848969E0,-3.210569859E0,5.724828243E0
1.001241683E0,-5.627918720E0,-3.344567776E0,5.638686657E0
1.003730433E0,-5.747560024E0,-3.445066452E0,5.600401402E0
1.006219235E0,-5.819344521E0,-3.555136204E0,5.504688263E0
1.008707985E0,-5.967699528E0,-3.660420418E0,5.428118229E0
1.011196735E0,-6.116054535E0,-3.842274904E0,5.336592674E0
1.013685485E0,-6.321837425E0,-3.928416491E0,5.264808178E0
1.016174235E0,-6.576074600E0,-3.947559118E0,5.231308460E0
1.018691474E0,-6.863213539E0,-3.981058598E0,5.307878971E0
1.021180849E0,-7.150352478E0,-3.909274101E0,5.399404526E0
1.023670328E0,-7.279564857E0,-3.789632797E0,5.480760098E0
1.026159808E0,-7.413562775E0,-3.741776466E0,5.648257732E0
1.028649235E0,-7.533802032E0,-3.665206194E0,5.782256126E0
1.031138714E0,-7.576872826E0,-3.612564087E0,5.901896954E0
1.033628193E0,-7.572087288E0,-3.655634880E0,5.988038540E0
1.036117620E0,-7.548159122E0,-3.622135162E0,6.050251961E0
1.038599130E0,-7.476374149E0,-3.650849104E0,6.045466423E0
1.041088297E0,-7.403991699E0,-3.689134359E0,6.002395630E0
1.043577568E0,-7.097710133E0,-3.885345697E0,6.687341213E0
1.046066839E0,-3.994817495E0,-7.093522549E0,1.442513084E1
1.048556110E0,-1.059422255E0,-1.062772179E1,2.022413635E1
1.051045328E0,-2.222932339E0,-9.579067230E0,1.601516151E1
1.053534599E0,-4.310669899E0,-6.878168583E0,1.073360443E1
1.056023870E0,-5.489135265E0,-4.938786030E0,8.085348129E0
1.058506526E0,-6.542575359E0,-3.449851990E0,6.969694138E0
1.060995537E0,-6.954140663E0,-2.573480844E0,5.877968788E0
1.063484651E0,-6.934998035E0,-2.181057930E0,4.939383984E0
1.065973714E0,-7.016354084E0,-2.114058733E0,4.484747887E0
1.068462828E0,-6.743572235E0,-2.319841623E0,4.609174728E0
1.070951891E0,-6.221338749E0,-2.927618504E0,4.570889473E0
1.073441005E0,-5.752345562E0,-3.435495138E0,4.350749969E0
1.075930068E0,-5.900700569E0,-3.803989887E0,4.489533424E0
1.078439339E0,-6.001199245E0,-3.985844374E0,4.848456860E0
1.080928870E0,-5.991627693E0,-3.957130432E0,5.006382942E0
1.083418505E0,-6.619145870E0,-3.708276987E0,5.404190063E0
1.085908089E0,-7.092924595E0,-3.459423304E0,6.011966705E0
1.088397672E0,-6.681358814E0,-3.665206194E0,6.112465382E0
1.090887308E0,-6.662216663E0,-3.703491211E0,5.394618511E0
1.093376891E0,-6.810571671E0,-3.650849104E0,4.771886349E0
1.095866474E0,-6.805785656E0,-3.880560160E0,4.724030018E0
1.098320693E0,-6.714858532E0,-4.053441525E0,4.637888432E0
1.100809339E0,-7.198208809E0,-3.727419376E0,4.403391838E0
1.103298037E0,-7.533802032E0,-3.622135162E0,4.341178417E0
1.105786735E0,-7.682157040E0,-3.593421459E0,4.350749969E0
1.108275485E0,-7.380063057E0,-3.612564087E0,4.432105541E0
1.110764183E0,-7.284350395E0,-3.526422262E0,4.518247128E0
1.113252880E0,-7.346563816E0,-3.306282759E0,4.776672363E0
1.115741578E0,-7.030711174E0,-3.157927752E0,4.714458942E0
1.118281578E0,-6.729215622E0,-3.052643538E0,4.537389755E0
1.120771474E0,-6.139982700E0,-3.014358282E0,4.561318398E0
1.123261422E0,-5.479563713E0,-3.014358282E0,4.810171604E0
1.125751370E0,-5.009972572E0,-3.071786165E0,5.255236626E0
1.128241318E0,-5.000401020E0,-3.052643538E0,5.408975601E0
1.130731266E0,-4.598406792E0,-3.033500910E0,5.504688263E0
1.133221214E0,-4.741976261E0,-2.865405083E0,5.825326920E0
1.135711110E0,-4.665405750E0,-2.827120066E0,6.035895348E0
1.138201058E0,-4.564907551E0,-2.774477959E0,5.925825119E0
1.140671266E0,-4.392624378E0,-2.654836655E0,5.375475883E0
1.143160693E0,-4.262813568E0,-2.525624275E0,5.159523964E0
1.145650172E0,-4.205385685E0,-2.702693224E0,5.322235584E0
1.148139651E0,-4.521836758E0,-2.841476917E0,5.092525005E0
1.150629130E0,-5.330610752E0,-2.985046148E0,4.747958183E0
1.153118610E0,-6.777071953E0,-2.913261652E0,5.269593716E0
1.155608089E0,-7.322635651E0,-2.650051117E0,6.007181168E0
1.158097568E0,-7.155138016E0,-2.362912416E0,5.648257732E0
1.160579703E0,-7.092924595E0,-2.070987940E0,5.331807137E0
1.163068974E0,-7.365706444E0,-2.018345833E0,5.307878971E0
1.165558245E0,-7.619943619E0,-2.042274237E0,5.274379253E0
1.168047568E0,-7.543373585E0,-2.176272154E0,5.283950806E0
1.170536839E0,-7.384849072E0,-2.214557409E0,5.288736343E0
1.173026162E0,-7.049853802E0,-2.185843468E0,5.264808178E0
1.175515433E0,-7.073781967E0,-1.956132531E0,5.059025288E0
1.178004703E0,-6.858428001E0,-1.970489502E0,4.886742115E0
1.180493089E0,-6.686144829E0,-2.181057930E0,4.795814991E0
1.182982308E0,-6.566503525E0,-2.252842426E0,4.752744198E0
1.185471526E0,-6.547360897E0,-2.334198475E0,4.843671322E0
1.187960797E0,-6.772286415E0,-2.338984251E0,5.202594757E0
1.190450068E0,-7.073781967E0,-2.219342947E0,5.791827202E0
1.192939339E0,-7.457231998E0,-2.085345030E0,6.246463299E0
1.195428610E0,-7.768298626E0,-2.056631088E0,6.625127792E0
1.197917880E0,-8.017151833E0,-2.066202402E0,6.816553593E0
1.200406735E0,-8.404789925E0,-1.999203324E0,6.945765972E0
1.202878922E0,-8.587242126E0,-2.137987137E0,7.012764931E0
1.205367724E0,-8.783453941E0,-2.181057930E0,6.902695179E0
1.207856578E0,-8.869595528E0,-2.319841623E0,6.706483841E0
1.210345485E0,-8.845666885E0,-2.396411896E0,6.500700951E0
1.212834339E0,-8.960522652E0,-2.468196630E0,6.232106686E0
1.215323193E0,-9.084949493E0,-2.468196630E0,5.949753284E0
1.217812047E0,-8.998807907E0,-2.477767944E0,5.925825119E0
1.220300953E0,-8.922237396E0,-2.444268227E0,6.050251961E0
1.222813870E0,-8.730812073E0,-2.525624275E0,5.676971912E0
1.225303245E0,-8.702097893E0,-2.487339020E0,5.226522923E0
1.227792724E0,-8.888737679E0,-2.243271112E0,4.982454777E0
1.230282151E0,-8.687741280E0,-2.204986095E0,4.915455818E0
1.232771630E0,-8.333004951E0,-2.271985054E0,5.006382942E0
1.235261110E0,-8.237292290E0,-2.224128723E0,4.992026329E0
1.237750537E0,-8.141578674E0,-2.133201361E0,5.039882660E0
1.240240016E0,-7.993224144E0,-2.066202402E0,5.030311584E0
1.242708922E0,-7.840083599E0,-1.936391711E0,4.968098164E0
1.245197828E0,-7.921439171E0,-1.859821439E0,4.829314232E0
1.247686735E0,-8.356932640E0,-1.797608018E0,4.996811867E0
1.250175693E0,-8.639883995E0,-1.792822361E0,5.188237667E0
1.252664599E0,-8.807381630E0,-1.878963947E0,5.327021599E0
1.255153558E0,-8.917451859E0,-1.893320918E0,5.504688263E0
1.257642516E0,-9.214161873E0,-1.917249203E0,5.935396671E0
1.260131422E0,-9.300303459E0,-1.946561217E0,6.198606968E0
1.262642516E0,-9.195018768E0,-2.166700840E0,6.351747513E0
1.265131943E0,-8.941379547E0,-2.324627161E0,6.553342819E0
1.267621422E0,-8.501100540E0,-2.353341103E0,6.687341213E0
1.270110901E0,-8.491529465E0,-2.200200319E0,6.811768055E0
1.272600433E0,-8.280363083E0,-2.133201361E0,6.730412006E0
1.275089912E0,-7.950153351E0,-2.037488461E0,6.419344902E0
1.277579391E0,-7.883154392E0,-1.936391711E0,6.179464340E0
1.280068922E0,-7.725227833E0,-2.042274237E0,6.074180126E0
1.282545537E0,-7.634300709E0,-2.051845312E0,5.930611134E0
1.285034651E0,-7.529016495E0,-1.984846354E0,5.964110374E0
1.287523818E0,-7.073781967E0,-2.047059774E0,6.040680885E0
1.290012985E0,-6.997211456E0,-2.094916344E0,5.739185333E0
1.292502151E0,-6.705287457E0,-2.195414782E0,5.452046394E0
1.294991370E0,-6.734001160E0,-2.214557409E0,5.461617470E0
1.297480537E0,-6.442076683E0,-2.262413740E0,5.753541946E0
1.299969703E0,-6.466004848E0,-2.075773716E0,5.504688263E0
1.302459703E0,-6.418148518E0,-1.855035782E0,4.546961308E0
1.304948818E0,-6.221338749E0,-1.926820397E0,4.470390797E0
1.307438037E0,-5.589633465E0,-2.195414782E0,4.685744762E0
1.309927203E0,-5.282754421E0,-2.367697954E0,4.752744198E0
1.312416370E0,-5.201398373E0,-2.324627161E0,4.590032101E0
1.314905589E0,-5.005186558E0,-2.200200319E0,4.460819721E0
1.317394755E0,-4.962115765E0,-2.066202402E0,4.508676052E0
1.319883974E0,-4.995615482E0,-1.816750646E0,4.613960266E0
1.322387255E0,-5.120042324E0,-1.467398524E0,4.700101852E0
1.324876787E0,-5.110470772E0,-1.161117196E0,4.858027935E0
1.327366318E0,-5.105685234E0,-1.103689432E0,5.030311584E0
1.329855849E0,-5.120042324E0,-1.266401410E0,5.216951370E0
1.332345380E0,-5.225326538E0,-1.534397483E0,5.327021599E0
1.334834964E0,-5.556134224E0,-1.778465390E0,5.456831932E0
1.337324495E0,-5.814558983E0,-1.989632010E0,5.609972477E0
1.339814026E0,-5.919843197E0,-2.109273195E0,5.748756409E0
1.342284703E0,-5.690132141E0,-2.291127682E0,5.753541946E0
1.344773766E0,-6.187839508E0,-2.267199516E0,5.954539299E0
1.347262828E0,-6.413362980E0,-2.037488461E0,6.184250355E0
1.349751891E0,-6.326622963E0,-2.070987940E0,5.992824078E0
1.352240953E0,-6.418148518E0,-2.176272154E0,5.782256126E0
1.354730016E0,-6.714858532E0,-2.195414782E0,5.758327484E0
1.357219078E0,-7.107281685E0,-2.262413740E0,5.748756409E0
1.359708141E0,-7.246065140E0,-2.209771633E0,5.696114540E0
1.362219443E0,-7.308278561E0,-2.080559254E0,5.638686657E0
1.364709026E0,-7.360920429E0,-1.994417667E0,5.614758492E0
1.367198662E0,-7.279564857E0,-1.912463546E0,5.471189022E0
1.369688245E0,-7.131209850E0,-1.807179332E0,5.437689304E0
1.372177880E0,-6.982854843E0,-1.749751568E0,5.365904808E0
1.374667516E0,-6.882356167E0,-1.663609982E0,5.226522923E0
1.377157151E0,-6.968497753E0,-1.587039590E0,5.097310543E0
1.379646787E0,-7.059424877E0,-1.481755376E0,5.212165833E0
1.382127203E0,-7.236494064E0,-1.577468276E0,5.126024246E0
1.384616526E0,-7.442874908E0,-1.840678811E0,4.901099205E0
1.387105953E0,-7.054639339E0,-2.200200319E0,4.647459984E0
1.389595328E0,-7.045068264E0,-2.343769789E0,4.446462631E0
1.392084755E0,-7.145566463E0,-2.386840582E0,4.451248169E0
1.394574130E0,-7.308278561E0,-2.377269268E0,4.551746845E0
1.397063505E0,-7.418348312E0,-2.348555326E0,4.805386066E0
1.399552933E0,-7.557730198E0,-2.233700037E0,5.240880013E0
1.402024755E0,-7.572087288E0,-2.219342947E0,5.519045353E0
1.404513610E0,-7.596015453E0,-2.252842426E0,5.648257732E0
1.407002568E0,-7.682157040E0,-2.262413740E0,5.581258774E0
1.409491526E0,-7.873582840E0,-2.300698996E0,5.404190063E0
1.411980485E0,-8.127222061E0,-2.367697954E0,5.154737949E0
1.414469443E0,-8.380861282E0,-2.362912416E0,5.001597404E0
1.416958401E0,-8.692526817E0,-2.410768747E0,4.929812908E0
1.419447360E0,-8.994022369E0,-2.372483730E0,4.929812908E0
1.421963193E0,-9.300303459E0,-2.372483730E0,4.934598446E0
1.424452776E0,-9.400801659E0,-2.382055044E0,4.939383984E0
1.426942412E0,-9.362516403E0,-2.329412937E0,4.958526611E0
1.429431995E0,-9.400801659E0,-2.353341103E0,5.245665550E0
1.431921630E0,-9.980463028E0,-2.267199516E0,7.266404152E0
1.434411266E0,-1.051167011E1,-2.200200319E0,9.153144836E0
1.436900901E0,-9.889535904E0,-1.682752490E0,6.692126751E0
1.439390537E0,-9.592825890E0,-1.309472203E0,4.254438877E0
1.441848766E0,-9.434301376E0,-1.141974568E0,3.751945972E0
1.444337568E0,-8.994022369E0,-1.051047325E0,3.986442566E0
1.446826422E0,-8.572885513E0,-1.098903775E0,4.791028976E0
1.449315224E0,-8.208578110E0,-1.247258782E0,5.672185898E0
1.451804078E0,-7.878368378E0,-1.362114310E0,5.992824078E0
1.454292933E0,-8.017151833E0,-1.304686546E0,5.858826160E0
1.456781735E0,-8.270791054E0,-1.261615753E0,5.758327484E0
1.459270589E0,-8.491529465E0,-1.180259824E0,5.557330608E0
1.461792099E0,-8.816953659E0,-1.127617717E0,5.471189022E0
1.464281683E0,-8.998807907E0,-1.055832982E0,5.552545071E0
1.466771370E0,-8.946166039E0,-9.888339639E-1,5.825326920E0
1.469261005E0,-9.118449211E0,-9.218349457E-1,5.983253002E0
1.471750641E0,-9.309874535E0,-8.015955687E-1,5.877968788E0
1.474240328E0,-9.338588715E0,-7.058826685E-1,5.787041664E0
1.476729964E0,-9.352945328E0,-6.388836503E-1,5.748756409E0
1.479219651E0,-9.405587196E0,-6.436693072E-1,5.700900078E0
1.481680641E0,-9.511469841E0,-6.484549642E-1,5.791827202E0
1.484169547E0,-9.784252167E0,-6.340979934E-1,5.777470112E0
1.486658453E0,-1.002831936E1,-5.670989752E-1,5.624329567E0
1.489147412E0,-1.022453117E1,-5.000999570E-1,5.653043270E0
1.491636318E0,-1.014317513E1,-4.761717021E-1,5.480760098E0
1.494125276E0,-1.013838959E1,-3.565305769E-1,5.605186939E0
1.496614183E0,-1.020538902E1,-2.656033039E-1,5.542973518E0
1.499103141E0,-1.018624592E1,-1.459621787E-1,5.456831932E0
1.501616995E0,-1.025324535E1,-1.938186288E-1,5.250451088E0
1.504106526E0,-1.017188931E1,-8.853443712E-2,4.948955536E0
1.506596058E0,-1.008096218E1,-1.363908947E-1,4.728815556E0
1.509085641E0,-1.009531879E1,-2.177468538E-1,4.575675011E0
1.511575224E0,-1.004746246E1,-3.421736360E-1,4.896313190E0
1.514064755E0,-1.011924744E1,-4.378865361E-1,4.958526611E0
1.516554339E0,-9.903892517E0,-5.718846321E-1,4.982454777E0
1.519043870E0,-9.750752449E0,-7.010970116E-1,5.059025288E0
1.521503453E0,-9.214161873E0,-9.266205430E-1,5.413761139E0
1.523992255E0,-8.907880783E0,-1.108475089E0,5.662614822E0
1.526481058E0,-8.812167168E0,-1.252044439E0,5.787041664E0
1.528969860E0,-8.587242126E0,-1.357328653E0,5.753541946E0
1.531458662E0,-8.199007034E0,-1.467398524E0,5.720042706E0
1.533947464E0,-7.485945702E0,-1.730608940E0,5.715256691E0
1.536436266E0,-6.934998035E0,-1.878963947E0,5.696114540E0
1.538925120E0,-6.494719028E0,-1.912463546E0,5.514259815E0
1.541433037E0,-5.986842155E0,-2.008774519E0,5.629115105E0
1.543922308E0,-5.344967365E0,-1.999203324E0,5.595615864E0
1.546411578E0,-4.746761799E0,-1.907677889E0,5.825326920E0
1.548900901E0,-4.607978344E0,-1.701895118E0,5.992824078E0
1.551390172E0,-4.741976261E0,-1.457827210E0,5.810969830E0
1.553879443E0,-4.780261517E0,-1.347757339E0,5.782256126E0
1.556368766E0,-5.417350292E0,-1.208973646E0,5.997610092E0
1.558858037E0,-6.010770321E0,-1.132403374E0,5.997610092E0
1.561339287E0,-6.628716946E0,-9.457631707E-1,5.925825119E0
1.563828349E0,-7.126423836E0,-8.781659007E-1,5.940182209E0
1.566317412E0,-7.524230957E0,-8.303094506E-1,5.734399319E0
1.568806526E0,-7.634300709E0,-8.685946465E-1,5.547759533E0
1.571295589E0,-7.744370461E0,-9.601200819E-1,5.657829285E0
1.573784703E0,-7.859225750E0,-1.046261668E0,5.519045353E0
1.576273766E0,-7.452445984E0,-1.118046403E0,5.696114540E0
1.578762880E0,-7.241279602E0,-1.185045362E0,5.954539299E0
1.581276318E0,-6.963712215E0,-1.328614831E0,5.600401402E0
1.583765953E0,-7.202994347E0,-1.362114310E0,5.092525005E0
1.586255641E0,-7.030711174E0,-1.524826288E0,4.609174728E0
1.588745328E0,-6.839285374E0,-1.898106575E0,4.412963390E0
1.591235068E0,-6.647859573E0,-2.176272154E0,4.355535507E0
1.593724755E0,-6.413362980E0,-2.410768747E0,4.374678135E0
1.596214443E0,-6.470790863E0,-2.606980324E0,4.561318398E0
1.598704130E0,-6.312266350E0,-2.769692183E0,4.556532383E0
1.601172620E0,-6.092126369E0,-2.788834810E0,4.633102894E0
1.603661735E0,-6.336194515E0,-2.745764017E0,4.633102894E0
1.606150901E0,-6.269195557E0,-2.745764017E0,4.187439442E0
1.608640068E0,-5.924628735E0,-2.760120869E0,4.211368084E0
1.611129183E0,-5.867201328E0,-2.688336134E0,4.417748928E0
1.613618349E0,-5.580062389E0,-2.712264538E0,4.412963390E0
1.616107516E0,-5.124827862E0,-2.769692183E0,4.494318962E0
1.618596683E0,-4.655834675E0,-2.865405083E0,4.733601570E0
1.621105485E0,-4.277170658E0,-2.937189817E0,5.073382378E0
1.623595068E0,-3.918246984E0,-2.846262455E0,5.001597404E0
1.626084755E0,-3.659822226E0,-2.731407166E0,4.858027935E0
1.628574391E0,-3.611965895E0,-2.587837696E0,4.814957142E0
1.631064026E0,-3.765106440E0,-2.434697151E0,4.776672363E0
1.633553714E0,-4.157529354E0,-2.224128723E0,4.848456860E0
1.636043349E0,-4.631906509E0,-2.008774519E0,4.982454777E0
1.638532985E0,-5.182255745E0,-1.687538147E0,4.977669239E0
1.641016995E0,-5.718846321E0,-1.520040631E0,4.953741074E0
1.643506422E0,-6.197410583E0,-1.342971683E0,4.987240791E0
1.645995953E0,-6.647859573E0,-1.204187989E0,5.212165833E0
1.648485433E0,-6.867999077E0,-1.127617717E0,5.456831932E0
1.650974964E0,-6.997211456E0,-1.070189953E0,5.375475883E0
1.653464443E0,-7.207779884E0,-9.984052777E-1,5.399404526E0
1.655953974E0,-7.457231998E0,-9.457631707E-1,5.643472195E0
1.658443505E0,-8.060222626E0,-8.398807645E-1,5.729613781E0
1.660933037E0,-8.457431793E0,-6.245267391E-1,5.715256691E0
1.663422464E0,-8.496315002E0,-4.953143001E-1,5.571687698E0
1.665911995E0,-8.390432358E0,-2.847459018E-1,5.375475883E0
1.668401474E0,-8.222934723E0,-1.268195957E-1,5.331807137E0
1.670891005E0,-7.801798344E0,-2.033899277E-1,5.356333256E0
1.673380485E0,-7.495516777E0,-2.225325108E-1,5.490331650E0
1.675870016E0,-7.222136974E0,-2.464607358E-1,5.514259815E0
1.678359495E0,-7.092924595E0,-2.033899277E-1,5.590830326E0
1.680852672E0,-7.088139057E0,-1.220339537E-1,5.801398277E0
1.683342203E0,-7.207779884E0,-6.460621208E-2,5.983253002E0
1.685831839E0,-7.298707485E0,-1.674975827E-2,6.117250919E0
1.688321422E0,-7.715656757E0,-2.632104978E-2,6.419344902E0
1.690811005E0,-8.361719131E0,-4.546362907E-2,6.806982040E0
1.693300641E0,-8.912666321E0,2.392822644E-3,7.194619656E0
1.695790224E0,-9.429515839E0,7.417750359E-2,7.285546780E0
1.698279808E0,-9.540184021E0,1.172483116E-1,7.041478634E0
1.700748193E0,-8.385646820E0,-2.799602449E-1,6.692126751E0
1.703237203E0,-7.351349354E0,-6.149554253E-1,6.385845661E0
1.705726266E0,-7.423133850E0,-5.527420044E-1,6.260820389E0
1.708215328E0,-7.844869137E0,-3.708875179E-1,6.232106686E0
1.710704391E0,-7.945367813E0,-2.560320199E-1,6.160321712E0
1.713193453E0,-8.155936241E0,-1.172483116E-1,6.031109333E0
1.715682516E0,-8.299505234E0,-5.503492057E-2,5.858826160E0
1.718171578E0,-8.218149185E0,1.316052526E-1,5.777470112E0
1.720661005E0,-8.127222061E0,2.853440940E-1,5.772684574E0
1.723150016E0,-8.127222061E0,3.667000830E-1,5.944967747E0
1.725639078E0,-8.371290207E0,4.480560422E-1,6.112465382E0
1.728128141E0,-8.759525299E0,6.394818425E-1,6.198606968E0
1.730617203E0,-9.717252731E0,9.074779749E-1,6.126822472E0
1.733106318E0,-1.067976570E1,1.113260746E0,6.443273067E0
1.735595380E0,-1.101954651E1,1.079761267E0,6.955337048E0
1.738084443E0,-1.115832996E1,9.314061999E-1,7.515855789E0
1.740589495E0,-1.131625652E1,8.883354068E-1,7.769495010E0
1.743078922E0,-1.145982552E1,7.782655358E-1,7.903493404E0
1.745568349E0,-1.181456184E1,7.016952634E-1,8.195417404E0
1.748057828E0,-1.196291637E1,6.155536175E-1,8.564510345E0
1.750547308E0,-1.190548897E1,4.432703853E-1,8.856434822E0
1.753036787E0,-1.192463207E1,3.906283081E-1,9.157930374E0
1.755526266E0,-1.206341553E1,3.236292601E-1,9.296713829E0
1.758015745E0,-1.170927715E1,1.752742529E-1,9.473783493E0
1.760508401E0,-1.105783176E1,-6.460621208E-2,9.699306488E0
1.762997933E0,-1.014317513E1,-4.187439680E-1,9.857233047E0
1.765487464E0,-9.386445045E0,-5.766702294E-1,9.838089943E0
1.767977047E0,-9.099306107E0,-6.771687865E-1,9.833304405E0
1.770466578E0,-9.147162437E0,-6.675975323E-1,9.766305923E0
1.772956110E0,-9.568898201E0,-6.053841114E-1,9.656235695E0
1.775445693E0,-9.942177773E0,-5.479564071E-1,9.622735977E0
1.777935224E0,-1.035374355E1,-3.900300860E-1,9.747162819E0
1.780418558E0,-1.137368393E1,-9.332008660E-2,1.038365364E1
1.782907880E0,-1.287278748E1,9.810572863E-2,1.126481056E1
1.785397308E0,-1.509930897E1,4.145565331E-1,1.265384388E1
1.787886683E0,-1.638724518E1,3.236292601E-1,1.274477196E1
1.790376110E0,-1.397408390E1,-1.028913707E-1,1.114038372E1
1.792865485E0,-1.212084293E1,-3.661018610E-1,1.004387283E1
1.795354860E0,-1.040159988E1,-4.139583111E-1,9.459425926E0
1.797844287E0,-9.161520004E0,-2.703889608E-1,8.889934540E0
1.800346735E0,-8.452646255E0,-5.024927482E-2,8.578866959E0
1.802836370E0,-7.777870178E0,1.124626622E-1,8.243273735E0
1.805326110E0,-7.078567505E0,3.236292601E-1,8.114061356E0
1.807815797E0,-6.226124287E0,5.102694035E-1,7.759923935E0
1.810305537E0,-5.364708424E0,6.921239495E-1,6.787839413E0
1.812795276E0,-5.355136871E0,9.840483069E-1,6.050251961E0
1.815284964E0,-5.891129494E0,1.247856975E0,5.293521881E0
1.817774703E0,-7.068996429E0,1.477568030E0,5.173880577E0
1.820247047E0,-7.505088329E0,1.621137381E0,4.618745804E0
1.822736266E0,-7.265207767E0,1.702493310E0,3.967299938E0
1.825225537E0,-7.241279602E0,1.841277003E0,4.134797573E0
1.827714808E0,-1.019581699E1,2.200200319E0,5.394618511E0
1.830204130E0,-1.453400517E1,2.688934565E0,6.083751678E0
1.832693401E0,-1.654038620E1,2.952144861E0,4.881956577E0
1.835182672E0,-1.567358685E1,2.870789051E0,4.177868366E0
1.837671943E0,-1.430429363E1,2.813361168E0,4.139583111E0
1.840161318E0,-1.305464172E1,2.866003275E0,4.187439442E0
1.842650537E0,-1.188634682E1,2.937788010E0,4.220939159E0
1.845139808E0,-1.072283649E1,3.143570662E0,4.187439442E0
1.847629078E0,-9.664610863E0,3.373879910E0,4.168296814E0
1.850118401E0,-8.644669533E0,3.527020693E0,4.149154663E0
1.852607672E0,-7.816154957E0,3.684946775E0,4.058227062E0
1.855096943E0,-7.155138016E0,3.756731510E0,3.948157310E0
1.857586214E0,-6.652645111E0,3.790230989E0,3.751945972E0
1.860082724E0,-6.245266914E0,3.713660717E0,3.555734396E0
1.862572099E0,-5.910272121E0,3.646661758E0,3.416950703E0
1.865061578E0,-5.627918720E0,3.565305710E0,3.330809116E0
1.867551058E0,-5.287539959E0,3.507878065E0,3.273381472E0
1.870040537E0,-5.033900738E0,3.402593851E0,3.316452265E0
1.872529964E0,-4.847260475E0,3.316452265E0,3.412165165E0
1.875019443E0,-4.761118889E0,3.205784082E0,3.598805189E0
1.877508922E0,-4.837689400E0,3.153141975E0,3.814159393E0
1.879993974E0,-4.746761799E0,3.071786165E0,3.996013880E0
1.882483297E0,-4.813760757E0,2.889931440E0,4.130012035E0
1.884972620E0,-4.832903385E0,2.770290375E0,4.120440483E0
1.887461995E0,-4.856831551E0,2.598007202E0,4.211368084E0
1.889951370E0,-4.488337040E0,2.397010088E0,4.336392879E0
1.892440693E0,-3.832105398E0,2.090130568E0,4.513461590E0
1.894930068E0,-3.884747505E0,1.932204247E0,4.671388149E0
1.897419391E0,-4.052245140E0,1.865205288E0,4.848456860E0
1.899910224E0,-4.411766529E0,1.913061738E0,5.135595798E0
1.902399547E0,-4.847260475E0,1.946561217E0,5.361119270E0
1.904888974E0,-5.258825779E0,1.913061738E0,5.485546112E0
1.907378349E0,-5.737988472E0,1.879562140E0,5.557330608E0
1.909867724E0,-6.221338749E0,1.793420553E0,5.552545071E0
1.912357099E0,-6.705287457E0,1.735992789E0,5.499902725E0
1.914846526E0,-7.193423271E0,1.726421595E0,5.485546112E0
1.917335901E0,-7.672585964E0,1.812563181E0,5.533402443E0
1.919820172E0,-8.356932640E0,1.917847395E0,5.691328526E0
1.922309339E0,-9.142376900E0,2.090130568E0,5.968895912E0
1.924798610E0,-9.923035622E0,2.282154560E0,6.246463299E0
1.927287880E0,-1.073240757E1,2.483151674E0,6.524629116E0
1.929777151E0,-1.156511021E1,2.827718258E0,6.744768620E0
1.932266370E0,-1.204427242E1,3.090928555E0,7.051050186E0
1.934755641E0,-1.221177006E1,3.287738323E0,7.280761242E0
1.937244912E0,-1.220698452E1,3.488735437E0,7.448856831E0
1.939733297E0,-1.207298660E1,3.546163082E0,7.611568928E0
1.942222464E0,-1.180977631E1,3.579662561E0,7.735995770E0
1.944711683E0,-1.142154026E1,3.622733593E0,7.989634991E0
1.947200953E0,-1.098604679E1,3.708875179E0,8.295916557E0
1.949690172E0,-1.035374355E1,3.795016766E0,8.636295319E0
1.952179391E0,-9.707681656E0,3.857230186E0,9.004789352E0
1.954668662E0,-9.056235313E0,3.862015724E0,9.282357216E0
1.957157880E0,-8.400003433E0,3.943371773E0,9.445069313E0
1.959654599E0,-7.777870178E0,3.833301783E0,9.449854851E0
1.962143974E0,-7.289135933E0,3.795016766E0,9.334999084E0
1.964633401E0,-6.872784615E0,3.694518089E0,9.071788788E0
1.967122828E0,-6.714858532E0,3.483949661E0,8.803792953E0
1.969612255E0,-6.700501442E0,3.282952785E0,8.473583221E0
1.972101630E0,-6.810571671E0,2.942573547E0,7.994420528E0
1.974591058E0,-7.025925636E0,2.598007202E0,7.467999458E0
1.977080485E0,-7.308278561E0,2.243869543E0,6.759125710E0
1.979562620E0,-7.605587006E0,1.941775560E0,6.069394588E0
1.982051787E0,-7.921439171E0,1.606780410E0,5.183452129E0
1.984541005E0,-8.242077827E0,1.453639746E0,4.322035789E0
1.987030276E0,-8.491529465E0,1.381855130E0,3.460021496E0
1.989519495E0,-8.692526817E0,1.333998680E0,2.789433002E0
1.992008714E0,-8.946166039E0,1.300499082E0,2.185843468E0
1.994497985E0,-9.132805824E0,1.372283816E0,1.606780410E0
1.996987203E0,-9.214161873E0,1.372283816E0,1.027119160E0
1.999462672E0,-9.324232101E0,1.353141189E0,5.006981492E-1
2.001951474E0,-9.376873970E0,1.238285661E0,-1.674975827E-2
2.004440380E0,-9.348159790E0,1.141974568E0,-4.283152521E-1
2.006929287E0,-9.305088997E0,9.361918569E-1,-8.111668825E-1
2.009418141E0,-9.252447128E0,5.294120312E-1,-1.118046403E0
2.011907047E0,-9.161520004E0,1.220339537E-1,-1.280758262E0
2.014395953E0,-9.013164520E0,-2.703889608E-1,-1.395613790E0
2.016884808E0,-8.850452423E0,-5.766702294E-1,-1.405185103E0
2.019392620E0,-8.673383713E0,-7.489534616E-1,-1.137188911E0
2.021881943E0,-8.289934158E0,-9.553344250E-1,-7.298108935E-1
2.024371318E0,-7.878368378E0,-9.744769931E-1,-1.651047617E-1
2.026860641E0,-7.403991699E0,-9.266205430E-1,6.490531564E-1
2.029350016E0,-6.867999077E0,-8.063812256E-1,1.487139225E0
2.031839391E0,-6.269195557E0,-6.053841114E-1,2.296511650E0
2.034328766E0,-5.556134224E0,-6.197410822E-1,3.019144058E0
2.036818089E0,-4.962115765E0,-6.723831892E-1,3.627519131E0
2.039315068E0,-4.464408875E0,-6.963114142E-1,4.206582069E0
2.041804599E0,-4.167100430E0,-6.484549642E-1,4.743172646E0
2.044294130E0,-3.961317778E0,-5.766702294E-1,5.087738991E0
2.046783714E0,-4.037888050E0,-2.225325108E-1,5.542973518E0
2.049273245E0,-4.267599106E0,1.316052526E-1,5.882754326E0
2.051762776E0,-4.584050179E0,5.246263742E-1,6.346961975E0
2.054252360E0,-4.789832592E0,7.926225066E-1,6.730412006E0
2.056741891E0,-4.828117847E0,8.404789567E-1,7.127620220E0
2.059223870E0,-4.713262558E0,9.074779749E-1,7.453642368E0
2.061713193E0,-4.665405750E0,9.792626500E-1,7.640282631E0
2.064202568E0,-4.641477585E0,8.979067206E-1,7.826922894E0
2.066691891E0,-4.588835716E0,7.686942816E-1,7.975277901E0
2.069181266E0,-4.651049137E0,7.495517135E-1,8.248059273E0
2.071670641E0,-4.698905468E0,5.916253924E-1,8.492725372E0
2.074159964E0,-4.631906509E0,3.954139352E-1,8.617152214E0
2.076649339E0,-4.507479668E0,1.465603858E-1,8.736793518E0
2.079139703E0,-4.330410957E0,-3.110669367E-2,8.818149567E0
2.081629026E0,-4.013959885E0,-2.464607358E-1,8.770293236E0
2.084118401E0,-3.674179077E0,-5.096712112E-1,8.593224525E0
2.086607828E0,-3.334398270E0,-8.159525394E-1,8.319844246E0
2.089097203E0,-3.108874798E0,-1.108475089E0,7.846065521E0
2.091586578E0,-3.051447153E0,-1.491326690E0,7.357331276E0
2.094075953E0,-3.247658491E0,-1.864607096E0,6.792625427E0
2.096565328E0,-3.655036688E0,-2.185843468E0,6.227321148E0
2.099057412E0,-4.272384644E0,-2.396411896E0,5.715256691E0
2.101546787E0,-5.053043365E0,-2.386840582E0,5.317450047E0
2.104036266E0,-5.895915031E0,-2.161915302E0,4.992026329E0
2.106525693E0,-6.748358250E0,-1.716252089E0,4.767100811E0
2.109015172E0,-7.562515736E0,-1.122832060E0,4.671388149E0
2.111504599E0,-8.323433876E0,-5.862415433E-1,4.680959225E0
2.113994026E0,-8.898308754E0,-1.124626622E-1,4.743172646E0
2.116483505E0,-9.209376335E0,2.853440940E-1,4.795814991E0
2.118964495E0,-9.276374817E0,5.102694035E-1,4.862813950E0
2.121453662E0,-9.209376335E0,7.016952634E-1,4.896313190E0
2.123942933E0,-8.955737114E0,8.787640929E-1,5.030311584E0
2.126432151E0,-8.668598175E0,9.888339639E-1,5.121238708E0
2.128921370E0,-8.433503151E0,1.108475089E0,5.322235584E0
2.131410641E0,-8.132007599E0,1.204786181E0,5.590830326E0
2.133899860E0,-7.816154957E0,1.141974568E0,5.901896954E0
2.136389078E0,-7.457231998E0,1.094118118E0,6.198606968E0
2.138885016E0,-7.054639339E0,9.122636318E-1,6.381059647E0
2.141374391E0,-6.552146435E0,6.681957245E-1,6.452844620E0
2.143863766E0,-6.092126369E0,4.241278172E-1,6.462415695E0
2.146353193E0,-5.603990555E0,1.076770201E-1,6.395416737E0
2.148842568E0,-5.158327579E0,-1.842473447E-1,6.289534092E0
2.151331995E0,-4.703691006E0,-3.086741269E-1,6.208178520E0
2.153821370E0,-4.181457520E0,-4.331009090E-1,6.074180126E0
2.156310797E0,-3.707678795E0,-5.383850932E-1,5.954539299E0
2.158797620E0,-3.104089260E0,-5.575276613E-1,5.830112457E0
2.161286943E0,-2.572882652E0,-5.766702294E-1,5.667400360E0
2.163776266E0,-2.031506538E0,-6.245267391E-1,5.475974560E0
2.166265589E0,-1.706082582E0,-7.106683254E-1,5.269593716E0
2.168754912E0,-1.586441398E0,-8.255237937E-1,5.044668198E0
2.171244287E0,-1.667797327E0,-1.003190875E0,4.843671322E0
2.173733610E0,-1.883151412E0,-1.127617717E0,4.623531342E0
2.176222933E0,-2.160718918E0,-1.247258782E0,4.298107624E0
2.178714391E0,-2.448455811E0,-1.371685624E0,3.900300980E0
2.181203714E0,-2.745165825E0,-1.424327731E0,3.436093330E0
2.183693141E0,-2.955734253E0,-1.510469317E0,2.956930637E0
2.186182516E0,-3.166302681E0,-1.567897081E0,2.554936409E0
2.188671891E0,-3.477967739E0,-1.591825247E0,2.224726915E0
2.191161266E0,-3.865604877E0,-1.639681697E0,2.080559254E0
2.193650693E0,-4.373481750E0,-1.697109461E0,1.936989903E0
2.196140068E0,-4.986044407E0,-1.634896040E0,1.927418590E0
2.198594547E0,-5.656632900E0,-1.591825247E0,1.908276081E0
2.201082985E0,-6.264409542E0,-1.505683661E0,1.927418590E0
2.203571526E0,-6.767500877E0,-1.395613790E0,1.970489502E0
2.206060068E0,-7.265207767E0,-1.347757339E0,2.128415823E0
2.208548558E0,-7.557730198E0,-1.390828133E0,2.368296146E0
2.211037099E0,-7.749155998E0,-1.400399446E0,2.741576433E0
2.213525641E0,-7.797012806E0,-1.486541033E0,3.181855917E0
2.216014130E0,-7.730013371E0,-1.606182218E0,3.790230989E0
2.218544547E0,-7.619943619E0,-1.826321840E0,4.355535507E0
2.221034078E0,-7.490731239E0,-2.003988981E0,4.972883701E0
2.223523714E0,-7.384849072E0,-2.271985054E0,5.590830326E0
2.226013297E0,-7.231708050E0,-2.492124796E0,6.145965099E0
2.228502880E0,-7.016354084E0,-2.769692183E0,6.716054916E0
2.230992464E0,-6.686144829E0,-3.057429075E0,7.252047062E0
2.233482047E0,-6.230910301E0,-3.301496983E0,7.755138397E0
2.235971683E0,-5.642275810E0,-3.411566973E0,8.176275253E0
2.238456058E0,-4.923830986E0,-3.459423304E0,8.531010628E0
2.240945433E0,-4.171886444E0,-3.459423304E0,8.837292671E0
2.243434912E0,-3.506681681E0,-3.363710403E0,9.100502968E0
2.245924391E0,-2.917448997E0,-3.210569859E0,9.358927727E0
2.248413818E0,-2.438884497E0,-2.903690338E0,9.522237778E0
2.250903297E0,-2.074577332E0,-2.688336134E0,9.603593826E0
2.253392776E0,-1.835294962E0,-2.386840582E0,9.718449593E0
2.255882203E0,-1.643869162E0,-2.056631088E0,9.885947227E0
2.258371162E0,-1.495514154E0,-1.855035782E0,9.905089378E0
2.260860537E0,-1.505085468E0,-1.692323804E0,9.694520950E0
2.263350016E0,-1.495514154E0,-1.596610904E0,9.330213547E0
2.265839443E0,-1.581655741E0,-1.601396561E0,8.880363464E0
2.268328870E0,-1.701296926E0,-1.692323804E0,8.401200294E0
2.270818349E0,-1.806581140E0,-1.792822361E0,7.893921852E0
2.273307776E0,-1.887937069E0,-1.878963947E0,7.271189690E0
2.275797203E0,-2.055434704E0,-2.013560295E0,6.696912289E0
2.278285485E0,-2.170290232E0,-2.190629244E0,6.198606968E0
2.280774860E0,-2.343171597E0,-2.425125837E0,5.782256126E0
2.283264287E0,-2.572882652E0,-2.511267424E0,5.361119270E0
2.285753662E0,-2.807379246E0,-2.678765059E0,5.020740032E0
2.288243089E0,-2.984447956E0,-2.860619545E0,4.666602135E0
2.290732516E0,-3.128017426E0,-2.961117983E0,4.365106583E0
2.293221943E0,-3.199802160E0,-3.138785124E0,4.134797573E0
2.295711318E0,-3.276970625E0,-3.287140131E0,3.909872293E0
2.298206005E0,-3.425325632E0,-3.401995659E0,3.890729666E0
2.300695537E0,-3.626322746E0,-3.445066452E0,3.976871252E0
2.303185068E0,-3.784249067E0,-3.378067255E0,4.201796532E0
2.305674599E0,-3.970889091E0,-3.296711445E0,4.570889473E0
2.308164183E0,-4.152743816E0,-3.076571703E0,5.035097122E0
2.310653714E0,-4.286741734E0,-2.803191662E0,5.523830891E0
2.313143245E0,-4.512265205E0,-2.611765862E0,6.083751678E0
2.315632776E0,-4.756333351E0,-2.367697954E0,6.735197544E0
2.318118453E0,-4.895116806E0,-2.142772675E0,7.400402069E0
2.320607828E0,-5.100899696E0,-1.965703845E0,8.118846893E0
2.323097308E0,-5.210969448E0,-1.788036704E0,8.751151085E0
2.325586735E0,-5.355136871E0,-1.716252089E0,9.344570160E0
2.328076162E0,-5.441278458E0,-1.673181176E0,9.828518867E0
2.330565641E0,-5.407779217E0,-1.658824325E0,1.030229759E1
2.333055068E0,-5.301896572E0,-1.749751568E0,1.063789082E1
2.335544547E0,-5.076971531E0,-1.888535261E0,1.095852947E1
2.338018610E0,-4.842474937E0,-2.051845312E0,1.115952682E1
2.340507620E0,-4.579264164E0,-2.204986095E0,1.133659554E1
2.342996683E0,-4.339982033E0,-2.310270309E0,1.143230820E1
2.345485745E0,-4.162314892E0,-2.353341103E0,1.139402294E1
2.347974808E0,-4.013959885E0,-2.348555326E0,1.132702446E1
2.350463870E0,-3.961317778E0,-2.219342947E0,1.117866898E1
2.352952880E0,-3.970889091E0,-2.190629244E0,1.101117134E1
2.355441943E0,-3.942175388E0,-2.104487419E0,1.080538845E1
2.357932672E0,-3.970889091E0,-2.070987940E0,1.051286602E1
2.360421683E0,-4.124029636E0,-2.114058733E0,1.016829967E1
2.362910797E0,-4.373481750E0,-2.123630047E0,9.842875481E0
2.365399912E0,-4.761118889E0,-2.094916344E0,9.536594391E0
2.367888974E0,-5.148756027E0,-2.128415823E0,9.157930374E0
2.370378089E0,-5.599205017E0,-2.123630047E0,8.856434822E0
2.372867203E0,-6.120840549E0,-2.224128723E0,8.636295319E0
2.375356318E0,-6.652645111E0,-2.329412937E0,8.593224525E0
2.377858245E0,-7.298707485E0,-2.439482689E0,8.531010628E0
2.380347620E0,-7.959724426E0,-2.539981127E0,8.545368195E0
2.382837047E0,-8.692526817E0,-2.592623234E0,8.521439552E0
2.385326474E0,-9.367302895E0,-2.544766903E0,8.526225090E0
2.387815901E0,-9.994820595E0,-2.487339020E0,8.459226608E0
2.390305276E0,-1.052124119E1,-2.358126640E0,8.439485550E0
2.392794703E0,-1.081376362E1,-2.128415823E0,8.540582657E0
2.395284130E0,-1.085204887E1,-1.869392633E0,8.722436905E0
2.397773193E0,-1.078504944E1,-1.582253933E0,9.023932457E0
2.400262568E0,-1.057448101E1,-1.285543919E0,9.339784622E0
2.402751995E0,-1.033938694E1,-9.936196208E-1,9.665806770E0
2.405241422E0,-1.006181908E1,-7.393822074E-1,9.962516785E0
2.407730797E0,-9.597611427E0,-5.383850932E-1,1.014915752E1
2.410220224E0,-9.070592880E0,-3.613162339E-1,1.025444126E1
2.412709651E0,-8.390432358E0,-2.895315289E-1,1.027358437E1
2.415199026E0,-7.691728592E0,-1.698904037E-1,1.016829967E1
2.417686162E0,-7.025925636E0,-7.417750359E-2,1.004865837E1
2.420175485E0,-6.221338749E0,1.196411345E-2,9.866804123E0
2.422664808E0,-5.589633465E0,1.752742529E-1,9.684949875E0
2.425154183E0,-4.919044971E0,3.571287692E-1,9.445069313E0
2.427643505E0,-4.310669899E0,5.772684813E-1,9.224929810E0
2.430132880E0,-3.812962770E0,7.830511928E-1,8.995218277E0
2.432622255E0,-3.329612732E0,1.041476011E0,8.755936623E0
2.435111578E0,-2.864806890E0,1.252642632E0,8.487939835E0
2.437580537E0,-2.443670034E0,1.434497118E0,8.209774017E0
2.440069339E0,-2.021935225E0,1.487139225E0,7.860422611E0
2.442558193E0,-1.701296926E0,1.444068432E0,7.563712597E0
2.445046995E0,-1.433300734E0,1.343569875E0,7.180262566E0
2.447535849E0,-1.145563841E0,1.161117196E0,6.797410965E0
2.450024703E0,-9.349954724E-1,9.361918569E-1,6.471987247E0
2.452513558E0,-6.000002623E-1,7.160521746E-1,6.476772785E0
2.455002360E0,-8.733802289E-2,4.767699242E-1,7.578069210E0
2.457515537E0,5.108676553E-1,1.848455518E-1,9.430712700E0
2.460004912E0,2.340180635E0,-6.484549642E-1,1.330469227E1
2.462494391E0,9.192028046E0,-3.210569859E0,2.364288139E1
2.464983818E0,1.360738373E1,-4.991427898E0,3.091646576E1
2.467473245E0,5.543571949E0,-2.903690338E0,2.329831505E1
2.469962724E0,-1.256231904E0,-1.496112347E0,1.645544052E1
2.472452151E0,-5.560919762E0,-1.060618639E0,1.309412384E1
2.474941630E0,-8.663812637E0,-1.098903775E0,1.104467106E1
2.477421839E0,-1.067498016E1,-1.122832060E0,9.589237213E0
2.479911005E0,-1.202034473E1,-1.204187989E0,8.621937752E0
2.482400224E0,-1.274357510E1,-1.323829174E0,8.295916557E0
2.484889443E0,-1.292542934E1,-1.395613790E0,8.952147484E0
2.487378662E0,-1.282014561E1,-1.515254974E0,1.019222832E1
2.489867828E0,-1.231226921E1,-1.563111424E0,1.115952682E1
2.492357047E0,-1.145025444E1,-1.534397483E0,1.114516926E1
2.494846266E0,-1.047817039E1,-1.453041553E0,1.051765156E1
2.497336422E0,-9.443872452E0,-1.357328653E0,9.613164902E0
2.499825589E0,-8.337790489E0,-1.256830096E0,8.636295319E0
2.502314808E0,-7.279564857E0,-1.180259824E0,7.539783955E0
2.504804078E0,-6.446862221E0,-1.070189953E0,6.342176437E0
2.507293297E0,-5.728417397E0,-9.361918569E-1,5.020740032E0
2.509782516E0,-5.254040241E0,-7.585247755E-1,3.814159393E0
2.512271787E0,-4.990829945E0,-7.154539824E-1,2.827718258E0
2.514761005E0,-4.746761799E0,-6.293123364E-1,1.941775560E0
2.517258610E0,-4.569693089E0,-5.431707501E-1,9.936196208E-1
2.519747985E0,-4.421338081E0,-3.852444589E-1,1.896311939E-1
2.522237412E0,-4.373481750E0,-1.938186288E-1,-2.368894368E-1
2.524726891E0,-4.291527271E0,9.332008660E-2,-5.982056633E-2
2.527216318E0,-4.310669899E0,7.686942816E-1,6.394818425E-1
2.529705745E0,-4.229313850E0,1.415354609E0,1.400997639E0
2.532195224E0,-4.478765965E0,1.750349760E0,3.167499065E0
2.534684651E0,-4.785047054E0,1.903490424E0,5.375475883E0
2.537154651E0,-5.048257351E0,2.133201361E0,7.352545738E0
2.539622255E0,-5.215754986E0,2.373081923E0,8.928219795E0
2.542110693E0,-5.465207100E0,2.497508526E0,9.885947227E0
2.544599130E0,-5.441278458E0,2.703291416E0,9.900303841E0
2.547087568E0,-4.488337040E0,3.244069338E0,8.813364029E0
2.549576005E0,-3.228515863E0,3.756731510E0,7.280761242E0
2.552064443E0,-2.979662418E0,3.584448338E0,7.400402069E0
2.554552880E0,-2.132004976E0,3.641875982E0,7.070192814E0
2.557054339E0,-1.356730461E0,3.627519131E0,6.744768620E0
2.559543037E0,-6.143572330E-1,3.503092289E0,7.295117855E0
2.562031787E0,-1.208375469E-1,3.014358282E0,8.075776100E0
2.564520537E0,3.002992272E-1,2.397010088E0,8.827720642E0
2.567009339E0,5.778666735E-1,1.611566067E0,9.488140106E0
2.569498089E0,8.123632669E-1,8.069794178E-1,9.594022751E0
2.571986839E0,8.991031051E-1,1.196411345E-2,9.287142754E0
2.574475589E0,9.708877802E-1,-6.867401004E-1,8.727222443E0
2.576969495E0,1.023529887E0,-1.390828133E0,8.094919205E0
2.579458349E0,8.745766878E-1,-1.926820397E0,7.554141045E0
2.581947255E0,7.788637877E-1,-2.233700037E0,7.156334400E0
2.584436110E0,6.352944374E-1,-2.391626120E0,6.816553593E0
2.586925016E0,4.821537733E-1,-2.516052961E0,6.505486488E0
2.589413922E0,3.529413342E-1,-2.520838737E0,6.351747513E0
2.591902776E0,2.380858511E-1,-2.343769789E0,6.869195461E0
2.594391683E0,-2.362912297E-1,-2.032702923E0,6.931408882E0
2.596902255E0,-1.102493048E0,-1.658824325E0,6.605985165E0
2.599391630E0,-1.983649969E0,-1.400399446E0,6.534200668E0
2.601881005E0,-2.678166628E0,-1.161117196E0,6.605985165E0
2.604370433E0,-3.142374277E0,-9.457631707E-1,6.682555676E0
2.606859860E0,-3.377469063E0,-7.154539824E-1,7.165905476E0
2.609349235E0,-3.372683525E0,-5.479564071E-1,7.889136314E0
2.611838662E0,-3.324826956E0,-4.283152521E-1,8.727222443E0
2.614328089E0,-3.238087177E0,-3.134597540E-1,9.536594391E0
2.616817464E0,-3.242872953E0,-1.890329868E-1,1.005823040E1
2.619305068E0,-3.363112211E0,-1.746760458E-1,1.006780148E1
2.621794391E0,-2.850450039E0,-3.182454109E-1,1.006301594E1
2.624283766E0,-2.132004976E0,-5.814558864E-1,1.046022415E1
2.626773141E0,-1.552941918E0,-8.781659007E-1,1.077667522E1
2.629262516E0,-9.062815905E-1,-1.070189953E0,1.108774185E1
2.631751891E0,-3.272185028E-1,-1.247258782E0,1.110209846E1
2.634241214E0,2.093719840E-1,-1.424327731E0,1.096810055E1
2.636730589E0,7.118647099E-1,-1.467398524E0,1.060917759E1
2.639233766E0,1.224527001E0,-1.524826288E0,1.006780148E1
2.641723401E0,1.870589137E0,-1.572682738E0,9.459425926E0
2.644213141E0,2.718246460E0,-1.663609982E0,9.057432175E0
2.646702828E0,3.570689678E0,-1.634896040E0,9.134002686E0
2.649192568E0,4.882554531E0,-1.711466432E0,1.002473068E1
2.651682255E0,7.070790768E0,-2.027917147E0,1.147059345E1
2.654171995E0,9.513264656E0,-2.085345030E0,1.287876987E1
2.656661683E0,1.111705399E1,-2.080559254E0,1.343869019E1
2.659146110E0,9.881759644E0,-2.137987137E0,1.348176098E1
2.661635641E0,8.133802414E0,-2.219342947E0,1.340519047E1
2.664125224E0,7.870592117E0,-2.453839540E0,1.387478256E1
2.666614808E0,7.894520283E0,-2.874976397E0,1.495693588E1
2.669104391E0,7.655237675E0,-3.344567776E0,1.497129345E1
2.671593974E0,7.037291527E0,-3.756133318E0,1.482772350E1
2.674083558E0,6.137589931E0,-3.961916208E0,1.442034531E1
2.676573141E0,4.954339504E0,-3.985844374E0,1.420020580E1
2.679072620E0,3.891327858E0,-3.904488325E0,1.409492207E1
2.681562412E0,3.479762316E0,-3.521636724E0,1.418584919E1
2.684052255E0,3.422334671E0,-3.100499868E0,1.433898926E1
2.686542047E0,3.637688637E0,-3.014358282E0,1.421456337E1
2.689031891E0,3.924827337E0,-2.798406124E0,1.409492207E1
2.691521735E0,3.987040758E0,-2.712264538E0,1.386042500E1
2.694011526E0,3.862613916E0,-2.697907448E0,1.364447308E1
2.696501370E0,3.541975737E0,-2.693121910E0,1.342433357E1
2.698953870E0,2.991626501E0,-2.559123755E0,1.335254860E1
2.701442672E0,2.239681959E0,-2.319841623E0,1.332383442E1
2.703931578E0,1.415952802E0,-1.951346874E0,1.310369492E1
2.706420433E0,6.640082598E-1,-1.591825247E0,1.313240910E1
2.708909339E0,1.950150430E-1,-1.223330617E0,1.285484123E1
2.711398245E0,-1.645065546E-1,-8.925228715E-1,1.256710434E1
2.713887099E0,-3.176472187E-1,-6.628118753E-1,1.211246777E1
2.716376005E0,-3.224328458E-1,-4.235295951E-1,1.146580791E1
2.718899703E0,-2.650051117E-1,-2.751746178E-1,1.081017494E1
2.721389443E0,-1.351944804E-1,-2.321037948E-1,1.010130119E1
2.723879183E0,-3.469592705E-2,-3.086741269E-1,9.440283775E0
2.726368974E0,6.580262631E-2,-3.230310678E-1,8.822935104E0
2.728858714E0,1.280160099E-1,-2.129612118E-1,8.262416840E0
2.731348505E0,3.098705411E-1,-2.416750938E-1,7.702496052E0
2.733838245E0,7.836494446E-1,-4.139583111E-1,7.151548862E0
2.736328037E0,1.439880967E0,-6.484549642E-1,6.649055958E0
2.738809651E0,2.148754835E0,-8.494520187E-1,6.059823513E0
2.741299183E0,2.914458036E0,-1.060618639E0,5.447260857E0
2.743788714E0,3.652045488E0,-1.223330617E0,4.695316315E0
2.746278297E0,4.274777889E0,-1.376471281E0,3.885943890E0
2.748767828E0,4.753342152E0,-1.596610904E0,2.885145903E0
2.751257412E0,5.328217983E0,-1.663609982E0,1.941775560E0
2.753746995E0,5.912066460E0,-1.701895118E0,1.127617717E0
2.756236526E0,6.467799664E0,-1.577468276E0,3.523431420E-1
2.758725485E0,6.936792850E0,-1.371685624E0,-3.661018610E-1
2.761215016E0,7.344171047E0,-1.237687469E0,-9.026923180E-1
2.763704547E0,7.607381344E0,-9.696913958E-1,-1.218544960E0
2.766194078E0,7.774878979E0,-7.250252366E-1,-1.319043517E0
2.768683610E0,7.832306862E0,-4.283152521E-1,-1.046261668E0
2.771173193E0,7.861020565E0,-1.651047617E-1,-4.043870270E-1
2.773662724E0,7.727022648E0,-7.417750359E-2,3.810569942E-1
2.776152255E0,7.727022648E0,-9.332008660E-2,1.276570916E0
2.778639078E0,7.487740040E0,-2.033899277E-1,1.673779488E0
2.781128505E0,7.157530785E0,-4.091726840E-1,2.099701881E0
2.783617933E0,7.075576782E0,-4.378865361E-1,2.866003275E0
2.786107412E0,6.970292568E0,-4.761717021E-1,3.771088600E0
2.788596891E0,7.013363361E0,-4.378865361E-1,4.834099770E0
2.791086370E0,7.147959232E0,-5.527420044E-1,5.897111416E0
2.793575849E0,7.372884750E0,-6.867401004E-1,6.869195461E0
2.796065328E0,7.707880020E0,-8.015955687E-1,7.836493969E0
2.798519339E0,7.985447407E0,-9.888339639E-1,8.507082939E0
2.801007880E0,8.239685059E0,-1.156331539E0,9.000003815E0
2.803496474E0,8.670392990E0,-1.295115232E0,9.421140671E0
2.805985068E0,9.206384659E0,-1.462612867E0,9.742377281E0
2.808473662E0,9.814760208E0,-1.405185103E0,9.728020668E0
2.810962203E0,1.053799057E1,-1.180259824E0,9.488140106E0
2.813450797E0,1.116012478E1,-9.649057388E-1,8.684151649E0
2.815939391E0,1.169671535E1,-7.298108935E-1,7.582854748E0
2.818468922E0,1.210828114E1,-7.872386575E-1,5.868397713E0
2.820958505E0,1.292243862E1,-9.649057388E-1,3.795016766E0
2.823448141E0,1.270708466E1,-1.319043517E0,3.340380430E0
2.825937724E0,1.125105190E1,-1.946561217E0,5.221737385E0
2.828427360E0,1.058106136E1,-2.439482689E0,5.385047436E0
2.830916995E0,1.006361389E1,-3.215355396E0,5.849255085E0
2.833406630E0,9.580264091E0,-3.823132277E0,6.050251961E0
2.835896214E0,9.474979401E0,-4.039084435E0,5.183452129E0
2.838384130E0,9.474979401E0,-4.077369690E0,2.923431158E0
2.840873662E0,9.269196510E0,-4.039084435E0,1.161117196E0
2.843363245E0,8.833105087E0,-4.455435753E0,-1.491326690E0
2.845852828E0,7.875377655E0,-5.053641319E0,-4.211368084E0
2.848342412E0,6.874579430E0,-5.642873764E0,-6.447460651E0
2.850831995E0,6.352943897E0,-6.198606968E0,-8.367700577E0
2.853321578E0,5.955137253E0,-6.595815659E0,-9.287142754E0
2.855811162E0,5.347360611E0,-6.495316982E0,-8.482556343E0
2.858279287E0,4.734199524E0,-6.006583214E0,-8.640482903E0
2.860768245E0,5.103292465E0,-5.523232937E0,-1.094357395E1
2.863257308E0,5.801996708E0,-4.981856823E0,-1.247617722E1
2.865746318E0,6.247660160E0,-4.713860512E0,-1.194915771E1
2.868235380E0,6.128018856E0,-4.704289436E0,-1.027836990E1
2.870724391E0,5.538786411E0,-4.723432064E0,-8.181060791E0
2.873213453E0,4.911268711E0,-4.570291042E0,-6.107679844E0
2.875702464E0,4.576273441E0,-4.297509670E0,-4.163511276E0
2.878181110E0,4.499702930E0,-3.789632797E0,-2.468196630E0
2.880669860E0,4.648057938E0,-3.148356438E0,-9.840483069E-1
2.883158610E0,5.069792747E0,-2.329412937E0,3.110669367E-2
2.885647412E0,5.610570908E0,-1.467398524E0,8.883354068E-1
2.888136162E0,6.012565136E0,-6.723831892E-1,1.601994753E0
2.890624964E0,6.247660160E0,2.566302419E-1,2.286940336E0
2.893113714E0,6.228517532E0,1.070189953E0,2.952144861E0
2.895602516E0,5.959922791E0,1.903490424E0,3.436093330E0
2.898106526E0,5.577071190E0,2.621935368E0,3.905086517E0
2.900595641E0,5.170291424E0,3.306880951E0,4.460819721E0
2.903084808E0,4.887340069E0,3.675375462E0,5.006382942E0
2.905573922E0,4.782055855E0,3.694518089E0,5.538187981E0
2.908063089E0,4.734199524E0,3.718446493E0,5.748756409E0
2.910552255E0,4.695914268E0,3.665804386E0,5.820540905E0
2.913041422E0,4.782055855E0,3.460021496E0,5.825326920E0
2.915530589E0,4.872983456E0,3.181855917E0,5.854040623E0
2.918023089E0,5.002195835E0,2.775076151E0,5.830112457E0
2.920512255E0,5.280361176E0,2.315654039E0,5.767899036E0
2.923001474E0,5.557928562E0,1.774278045E0,5.533402443E0
2.925490745E0,5.840281963E0,1.367498159E0,5.336592674E0
2.927979964E0,6.161518097E0,9.505487680E-1,5.149952412E0
2.930469235E0,6.453442574E0,4.863412082E-1,5.130809784E0
2.932958453E0,6.616154671E0,7.178467698E-3,5.092525005E0
2.935447672E0,6.793223381E0,-4.666004181E-1,5.183452129E0
2.937927412E0,6.941578388E0,-8.925228715E-1,5.193023205E0
2.940416370E0,7.334599495E0,-1.453041553E0,5.245665550E0
2.942905380E0,7.698308468E0,-2.008774519E0,5.226522923E0
2.945394391E0,8.109873772E0,-2.549552441E0,5.145166874E0
2.947883349E0,8.426324844E0,-3.038286448E0,4.982454777E0
2.950372360E0,8.756534576E0,-3.464209080E0,4.724030018E0
2.952861370E0,9.034101486E0,-3.842274904E0,4.350749969E0
2.955350380E0,9.283554077E0,-4.149154663E0,4.039084435E0
2.957831005E0,9.623334885E0,-4.402793884E0,3.641875982E0
2.960319703E0,1.007318497E1,-4.632504463E0,3.071786165E0
2.962808505E0,1.043749237E1,-4.862215519E0,2.435295343E0
2.965297308E0,1.085384369E1,-4.957928658E0,2.195414782E0
2.967786058E0,1.114098263E1,-4.996213913E0,2.209771633E0
2.970274860E0,1.117448139E1,-4.871787071E0,2.248655081E0
2.972763662E0,1.101655579E1,-4.637290478E0,2.516651154E0
2.975252464E0,1.079162979E1,-4.350151539E0,2.755933523E0
2.977748974E0,1.037049294E1,-4.009772778E0,3.105285645E0
2.980237880E0,9.896116257E0,-3.622135162E0,3.574877024E0
2.982726891E0,9.350552559E0,-3.138785124E0,4.130012035E0
2.985215849E0,8.818747520E0,-2.803191662E0,4.556532383E0
2.987704808E0,8.330612183E0,-2.405983210E0,4.953741074E0
2.990193818E0,7.966304779E0,-2.118844509E0,5.322235584E0
2.992682776E0,7.693522930E0,-1.859821439E0,5.600401402E0
2.995171787E0,7.545167923E0,-1.682752490E0,5.892325878E0
2.997698714E0,7.329813957E0,-1.682752490E0,6.313462734E0
3.000188558E0,7.181458950E0,-1.701895118E0,6.553342819E0
3.002678505E0,6.994220734E0,-1.721037745E0,6.491129398E0
3.005168453E0,6.888936520E0,-1.778465390E0,6.184250355E0
3.007658401E0,6.874579430E0,-1.912463546E0,5.777470112E0
3.010148297E0,6.831508636E0,-2.018345833E0,5.447260857E0
3.012638245E0,6.869793892E0,-2.219342947E0,5.236093998E0
3.015128193E0,7.286743164E0,-2.449054003E0,5.059025288E0
3.017598193E0,7.765307903E0,-2.736192703E0,5.193023205E0
3.020066943E0,7.262814999E0,-2.702693224E0,5.519045353E0
3.022555901E0,7.908876896E0,-2.482553482E0,5.983253002E0
3.025044808E0,8.981459618E0,-2.401197433E0,6.265605927E0
3.027533714E0,9.508479118E0,-2.219342947E0,6.390631199E0
3.030022672E0,9.671191216E0,-2.147558212E0,6.586842537E0
3.032511578E0,9.656833649E0,-2.271985054E0,6.663413048E0
3.035000485E0,9.226125717E0,-2.554338217E0,6.682555676E0
3.037513141E0,8.062017441E0,-2.803191662E0,6.519843578E0
3.040002620E0,7.779664516E0,-3.210569859E0,5.672185898E0
3.042492151E0,8.114660263E0,-3.564707518E0,4.657031059E0
3.044981630E0,8.742177963E0,-3.708276987E0,3.718446493E0
3.047471162E0,9.187242508E0,-3.784847260E0,2.937788010E0
3.049960693E0,9.417551994E0,-3.650849104E0,2.397010088E0
3.052450224E0,9.541978836E0,-3.378067255E0,2.070987940E0
3.054939755E0,9.503693581E0,-3.038286448E0,2.018345833E0
3.057449391E0,9.422337532E0,-2.635694027E0,2.161915302E0
3.059939391E0,9.302696228E0,-2.224128723E0,2.468794823E0
3.062429391E0,9.240483284E0,-1.764108539E0,2.846860647E0
3.064919443E0,9.144171715E0,-1.371685624E0,3.273381472E0
3.067409443E0,9.120243073E0,-9.601200819E-1,3.622733593E0
3.069899495E0,9.158528328E0,-5.958128572E-1,3.952943087E0
3.072389495E0,9.297910690E0,-2.895315289E-1,4.225724697E0
3.074879547E0,9.585049629E0,-1.674975827E-2,4.470390797E0
3.077349547E0,9.800403595E0,1.752742529E-1,4.743172646E0
3.079805485E0,9.948758125E0,3.619144261E-1,4.977669239E0
3.082294183E0,1.000618649E1,4.671986103E-1,5.082953453E0
3.084782880E0,9.982257843E0,5.629115105E-1,5.202594757E0
3.087271578E0,9.862616539E0,5.629115105E-1,5.317450047E0
3.089760276E0,9.589835167E0,5.916253924E-1,5.327021599E0
3.092248974E0,9.340981483E0,5.150550604E-1,5.365904808E0
3.094737672E0,8.823533058E0,4.145565331E-1,5.365904808E0
3.097284912E0,8.321041107E0,2.327020019E-1,5.370690346E0
3.099775016E0,7.746165276E0,1.028913707E-1,5.283950806E0
3.102265172E0,7.286743164E0,-1.603191197E-1,5.149952412E0
3.104755380E0,6.860222340E0,-3.469592929E-1,4.982454777E0
3.107245537E0,6.553941250E0,-6.388836503E-1,4.896313190E0
3.109735693E0,6.314659119E0,-8.638089895E-1,4.834099770E0
3.112225901E0,6.128018856E0,-1.079761267E0,4.862813950E0
3.114716058E0,6.017350674E0,-1.352542996E0,4.877170563E0
3.117187412E0,5.935994625E0,-1.572682738E0,4.886742115E0
3.119677047E0,5.950351715E0,-1.811964989E0,4.886742115E0
3.122166735E0,5.993422508E0,-2.070987940E0,4.767100811E0
3.124656422E0,6.108876228E0,-2.257628202E0,4.714458942E0
3.127146110E0,6.290730953E0,-2.439482689E0,4.594817638E0
3.129635849E0,6.549155712E0,-2.693121910E0,4.489533424E0
3.132125537E0,6.903293133E0,-2.894119024E0,4.355535507E0
3.134615224E0,7.329813957E0,-3.071786165E0,4.206582069E0
3.137094026E0,7.789236069E0,-3.263211966E0,4.139583111E0
3.139583401E0,8.311469078E0,-3.382853031E0,4.058227062E0
3.142072828E0,8.857032776E0,-3.473780155E0,4.029513359E0
3.144562203E0,9.360123634E0,-3.502494097E0,4.000799656E0
3.147051630E0,9.766903877E0,-3.545564890E0,4.039084435E0
3.149541058E0,1.017846966E1,-3.545564890E0,4.082155228E0
3.152030485E0,1.051884842E1,-3.545564890E0,4.115654945E0
3.154519912E0,1.076291656E1,-3.531208038E0,4.211368084E0
3.156988505E0,1.097827053E1,-3.473780155E0,4.220939159E0
3.159477360E0,1.115533924E1,-3.435495138E0,4.283152580E0
3.161966266E0,1.127498055E1,-3.363710403E0,4.350749969E0
3.164455172E0,1.134736347E1,-3.287140131E0,4.408177376E0
3.166944078E0,1.147179031E1,-3.186641455E0,4.513461590E0
3.169432985E0,1.150528908E1,-3.129213810E0,4.613960266E0
3.171921839E0,1.143350506E1,-3.047857761E0,4.690530777E0
3.174410745E0,1.140479088E1,-2.975475073E0,4.776672363E0
3.176925328E0,1.135693455E1,-2.937189817E0,4.915455818E0
3.179414808E0,1.117448139E1,-2.941975355E0,4.977669239E0
3.181904391E0,1.095912743E1,-2.922832966E0,5.135595798E0
3.184393922E0,1.075334454E1,-2.922832966E0,5.255236626E0
3.186883453E0,1.050927734E1,-2.865405083E0,5.399404526E0
3.189372985E0,1.016889763E1,-2.841476917E0,5.499902725E0
3.191862516E0,9.910472870E0,-2.846262455E0,5.547759533E0
3.194352047E0,9.671191216E0,-2.764906645E0,5.619544029E0
3.196823610E0,9.474979401E0,-2.736192703E0,5.624329567E0
3.199312672E0,9.369695663E0,-2.702693224E0,5.595615864E0
3.201801735E0,9.345767021E0,-2.678765059E0,5.609972477E0
3.204290849E0,9.254839897E0,-2.745764017E0,5.566901684E0
3.206779964E0,9.235696793E0,-2.731407166E0,5.542973518E0
3.209269078E0,9.245268822E0,-2.683550596E0,5.514259815E0
3.211758193E0,9.312267303E0,-2.645265341E0,5.538187981E0
3.214247308E0,9.350552559E0,-2.468196630E0,5.562116146E0
3.216736370E0,9.374481201E0,-2.391626120E0,5.590830326E0
3.219231735E0,9.283554077E0,-2.252842426E0,5.624329567E0
3.221720901E0,9.115457535E0,-2.185843468E0,5.633901119E0
3.224210172E0,8.866603851E0,-2.114058733E0,5.624329567E0
3.226699391E0,8.550751686E0,-2.056631088E0,5.662614822E0
3.229188662E0,8.230113029E0,-2.003988981E0,5.638686657E0
3.231677933E0,7.990232944E0,-1.912463546E0,5.691328526E0
3.234167151E0,7.765307903E0,-1.850250125E0,5.653043270E0
3.236656422E0,7.640881062E0,-1.764108539E0,5.595615864E0
3.239138193E0,7.545167923E0,-1.749751568E0,5.566901684E0
3.241627203E0,7.588238716E0,-1.754537225E0,5.552545071E0
3.244116266E0,7.612166882E0,-1.687538147E0,5.456831932E0
3.246605328E0,7.784450054E0,-1.658824325E0,5.327021599E0
3.249094391E0,8.157731056E0,-1.754537225E0,5.264808178E0
3.251583453E0,8.632107735E0,-1.740180254E0,5.159523964E0
3.254072516E0,9.101100922E0,-1.797608018E0,5.035097122E0
3.256561578E0,9.675976753E0,-1.859821439E0,4.934598446E0
3.259058922E0,1.024068260E1,-1.931606054E0,4.824528694E0
3.261548141E0,1.077248764E1,-1.989632010E0,4.671388149E0
3.264037360E0,1.120319557E1,-2.094916344E0,4.542175770E0
3.266526630E0,1.153400326E1,-2.190629244E0,4.254438877E0
3.269015901E0,1.197906876E1,-2.248056889E0,3.890729666E0
3.271505172E0,1.248694515E1,-2.152343988E0,3.550948858E0
3.273994443E0,1.308993626E1,-2.056631088E0,3.268595695E0
3.276483714E0,1.357867050E1,-1.926820397E0,3.244069338E0
3.278965693E0,1.377966785E1,-1.883749604E0,3.397808075E0
3.281454703E0,1.380838108E1,-1.840678811E0,3.708875179E0
3.283943766E0,1.366002655E1,-1.898106575E0,4.072584152E0
3.286432880E0,1.350209999E1,-1.941177368E0,4.451248169E0
3.288921943E0,1.321436310E1,-2.075773716E0,4.714458942E0
3.291411058E0,1.295115280E1,-2.185843468E0,4.920241356E0
3.293900120E0,1.275015545E1,-2.271985054E0,5.011168957E0
3.296389183E0,1.257787228E1,-2.353341103E0,4.934598446E0
3.298898297E0,1.228534985E1,-2.453839540E0,4.747958183E0
3.301387828E0,1.201256752E1,-2.520838737E0,4.475176334E0
3.303877412E0,1.170150089E1,-2.578266382E0,4.115654945E0
3.306366995E0,1.126062298E1,-2.659622431E0,3.775874138E0
3.308856578E0,1.085862923E1,-2.779263496E0,3.397808075E0
3.311346162E0,1.049491978E1,-2.970689297E0,2.952144861E0
3.313835797E0,1.002532864E1,-3.110071182E0,2.550150633E0
3.316325380E0,9.604191780E0,-3.320639610E0,2.185843468E0
3.318804599E0,9.245268822E0,-3.540779352E0,1.740778446E0
3.321293870E0,8.770891190E0,-3.727419376E0,1.343569875E0
3.323783193E0,8.368897438E0,-3.909274101E0,9.409775138E-1
3.326272516E0,8.114660263E0,-3.990629911E0,6.011967063E-1
3.328761839E0,7.908876896E0,-4.072584152E0,3.332005441E-1
3.331251214E0,7.837092400E0,-4.024129391E0,1.657029688E-1
3.333740537E0,7.884948730E0,-3.933202267E0,4.546362907E-2
3.336229860E0,8.033304214E0,-3.784847260E0,7.178467698E-3
3.338727933E0,8.263612747E0,-3.569493294E0,-4.067798331E-2
3.341217464E0,8.478966713E0,-3.392424345E0,-5.503492057E-2
3.343706995E0,8.684749603E0,-3.129213810E0,-6.460621208E-2
3.346196526E0,8.943174362E0,-2.898904562E0,-4.067798331E-2
3.348686058E0,9.153742790E0,-2.750549555E0,8.853443712E-2
3.351175641E0,9.513264656E0,-2.487339020E0,2.374876440E-1
3.353665172E0,9.886545181E0,-2.295913219E0,3.236292601E-1
3.356154703E0,1.017368412E1,-2.133201361E0,4.863412082E-1
3.358620537E0,1.045663452E1,-1.965703845E0,5.964110494E-1
3.361109391E0,1.073420238E1,-1.735394597E0,2.037488461E0
3.363598349E0,1.078205872E1,-1.515254974E0,3.608376503E0
3.366087308E0,1.068634605E1,-1.242473125E0,4.657031059E0
3.368576266E0,1.047099209E1,-1.012762189E0,5.964110374E0
3.371065172E0,1.020718288E1,-8.638089895E-1,7.554141045E0
3.373554130E0,9.857831001E0,-6.771687865E-1,9.191430092E0
3.376043089E0,9.671191216E0,-5.910272002E-1,1.067617607E1
3.378574651E0,9.374481201E0,-5.383850932E-1,1.163390350E1
3.381064651E0,9.120243073E0,-5.718846321E-1,1.204068375E1
3.383554651E0,8.550751686E0,-5.048855543E-1,1.216032505E1
3.386044651E0,8.210970879E0,-5.814558864E-1,1.187797165E1
3.388534703E0,7.951947689E0,-7.537391186E-1,1.136052418E1
3.391024703E0,7.717451096E0,-9.218349457E-1,1.060917759E1
3.393514703E0,7.382455826E0,-1.070189953E0,9.704092026E0
3.396004703E0,7.008577347E0,-1.175474167E0,8.760722160E0
3.398469235E0,7.382455826E0,-1.319043517E0,7.692924976E0
3.400958558E0,7.736593723E0,-1.457827210E0,6.615556240E0
3.403447933E0,7.913662910E0,-1.529611826E0,5.605186939E0
3.405937308E0,8.114660263E0,-1.644467354E0,4.781457901E0
3.408426683E0,8.177471161E0,-1.749751568E0,4.144368649E0
3.410916058E0,8.129016876E0,-1.816750646E0,3.598805189E0
3.413405433E0,7.990232944E0,-1.970489502E0,3.311666489E0
3.415894808E0,7.731808186E0,-2.137987137E0,3.004786968E0
3.418383349E0,7.698308468E0,-2.338984251E0,2.770290375E0
3.420872672E0,7.674380302E0,-2.544766903E0,2.550150633E0
3.423361995E0,7.502097130E0,-2.831905603E0,2.353939295E0
3.425851370E0,7.396812916E0,-3.057429075E0,2.176272154E0
3.428340745E0,7.406384468E0,-3.267997503E0,2.075773716E0
3.430830068E0,7.415955544E0,-3.516851187E0,1.956132531E0
3.433319443E0,7.497311592E0,-3.626920938E0,1.913061738E0
3.435808766E0,7.569096088E0,-3.760919094E0,1.807777524E0
3.438289703E0,7.803592682E0,-3.952344894E0,1.697707653E0
3.440778818E0,8.028517723E0,-4.144368649E0,1.472782373E0
3.443267933E0,8.119445801E0,-4.244867325E0,1.271785259E0
3.445757099E0,8.282755852E0,-4.388436794E0,1.012762189E0
3.448246214E0,9.134600639E0,-4.689932346E0,3.906283081E-1
3.450735380E0,9.269196510E0,-4.847858906E0,1.674975827E-2
3.453224495E0,9.618548393E0,-5.073382378E0,-4.091726840E-1
3.455713662E0,9.738189697E0,-5.212165833E0,-7.824530005E-1
3.458208818E0,9.790832520E0,-5.255236626E0,-1.118046403E0
3.460698089E0,9.786046028E0,-5.279164791E0,-1.342971683E0
3.463187360E0,9.714262009E0,-5.173880577E0,-1.429113269E0
3.465676683E0,9.699904442E0,-5.058426857E0,-1.529611826E0
3.468165953E0,9.594620705E0,-4.886143684E0,-1.515254974E0
3.470655224E0,9.537193298E0,-4.795216560E0,-1.500898004E0
3.473144547E0,9.589835167E0,-4.661218643E0,-1.424327731E0
3.475633818E0,9.723833084E0,-4.541577339E0,-1.304686546E0
3.478141891E0,9.809974670E0,-4.441078663E0,-1.204187989E0
3.480631578E0,9.896116257E0,-4.374079704E0,-1.017547846E0
3.483121318E0,1.007797050E1,-4.374079704E0,-9.170492887E-1
3.485611110E0,1.021675491E1,-4.354937077E0,-9.266205430E-1
3.488100849E0,1.023589706E1,-4.340580463E0,-8.111668825E-1
3.490590641E0,1.036092186E1,-4.283152580E0,-9.984052777E-1
3.493080380E0,1.064327526E1,-4.287938118E0,-1.156331539E0
3.495570120E0,1.102134132E1,-4.316651821E0,-1.524826288E0
3.498047360E0,1.165364456E1,-4.441078663E0,-3.602992773E0
3.500536735E0,1.233858967E1,-4.484149456E0,-9.775279045E0
3.503026162E0,1.258744335E1,-4.713860512E0,-9.190832138E0
3.505515641E0,1.284586811E1,-4.905286312E0,-8.123034477E0
3.508005068E0,1.275972652E1,-5.058426857E0,-6.906882763E0
3.510494495E0,1.239601803E1,-5.236093998E0,-5.494519234E0
3.512983974E0,1.196949673E1,-5.293521881E0,-3.904488325E0
3.515473401E0,1.112183952E1,-4.962714195E0,3.571287692E-1
3.517948297E0,1.006361389E1,-4.316651821E0,4.915455818E0
3.520437360E0,9.403194427E0,-3.641277790E0,7.409973621E0
3.522926422E0,9.005388260E0,-2.965903759E0,8.947361946E0
3.525415485E0,8.555537224E0,-2.262413740E0,9.933803558E0
3.527904599E0,8.057231903E0,-1.601396561E0,1.053200912E1
3.530393662E0,7.741379261E0,-1.027119160E0,1.072881889E1
3.532882724E0,7.482954502E0,-4.618147612E-1,1.050808048E1
3.535371787E0,7.372884750E0,-5.982056633E-2,9.771091461E0
3.537874547E0,7.640881062E0,2.183450609E-1,8.688937187E0
3.540363922E0,8.095517159E0,4.145565331E-1,7.544569969E0
3.542853297E0,8.469395638E0,5.437689424E-1,6.289534092E0
3.545342724E0,8.761320114E0,5.533402562E-1,4.972883701E0
3.547832151E0,8.995817184E0,6.011967063E-1,3.651447296E0
3.550321578E0,9.317052841E0,5.389832854E-1,2.454437733E0
3.552811005E0,9.771689415E0,4.001995921E-1,1.582852125E0
3.555289026E0,1.011625576E1,2.422732860E-1,1.079761267E0
3.557778401E0,1.021675491E1,-7.178467698E-3,6.634100676E-1
3.560267776E0,1.040399265E1,-2.081755698E-1,6.011967063E-1
3.562757203E0,1.058106136E1,-4.809573591E-1,6.634100676E-1
3.565246630E0,1.039442158E1,-6.771687865E-1,9.266205430E-1
3.567736058E0,1.005404282E1,-8.350951076E-1,1.372283816E0
3.570225485E0,9.742975235E0,-1.108475089E0,1.831705689E0
3.572714912E0,9.269196510E0,-1.218544960E0,2.243869543E0
3.575191683E0,8.871390343E0,-1.299900889E0,2.755933523E0
3.577680745E0,8.244470596E0,-1.314257860E0,3.349951744E0
3.580169860E0,7.918448448E0,-1.252044439E0,3.852444410E0
3.582658974E0,7.650452137E0,-1.146760225E0,4.355535507E0
3.585148089E0,7.425527096E0,-1.065404296E0,4.666602135E0
3.587637151E0,7.243672371E0,-1.031904817E0,4.733601570E0
3.590126266E0,7.118647575E0,-9.361918569E-1,4.637888432E0
3.592615380E0,7.104290485E0,-8.398807645E-1,4.369892120E0
3.595129912E0,7.281957626E0,-7.441678643E-1,4.029513359E0
3.597619651E0,7.353742123E0,-5.910272002E-1,3.608376503E0
3.600109391E0,7.588238716E0,-4.522434771E-1,3.186641455E0
3.602599130E0,8.177471161E0,-2.512463629E-1,2.909074068E0
3.605088870E0,8.464610100E0,-6.460621208E-2,2.641077995E0
3.607578610E0,8.689535141E0,1.220339537E-1,2.363510609E0
3.610068349E0,8.699107170E0,2.805584669E-1,2.161915302E0
3.612558089E0,8.694320679E0,4.528416991E-1,2.008774519E0
3.615019599E0,8.622536659E0,5.724828243E-1,1.908276081E0
3.617508610E0,8.354539871E0,6.634100676E-1,1.692921996E0
3.619997620E0,8.004590034E0,6.681957245E-1,1.625923038E0
3.622486683E0,7.746165276E0,6.490531564E-1,1.563709617E0
3.624975693E0,7.731808186E0,6.825526357E-1,1.635494232E0
3.627464755E0,7.832306862E0,7.064808607E-1,1.683350682E0
3.629953766E0,7.904091358E0,6.586244106E-1,1.616351724E0
3.632442828E0,8.057231903E0,6.346961856E-1,1.554138303E0
3.634954495E0,8.090731621E0,4.959124923E-1,1.506281853E0
3.637444026E0,8.133802414E0,4.528416991E-1,1.496710539E0
3.639933662E0,8.220541954E0,3.667000830E-1,1.544566989E0
3.642423245E0,8.368897438E0,2.614158690E-1,1.549352646E0
3.644912880E0,8.670392990E0,7.896314561E-2,1.511067510E0
3.647402464E0,8.957531929E0,-1.076770201E-1,1.434497118E0
3.649892099E0,9.206384659E0,-2.560320199E-1,1.300499082E0
3.652381683E0,9.656833649E0,-4.283152521E-1,1.195214868E0
3.654877047E0,1.016411209E1,-6.005984545E-1,1.151545882E0
3.657366735E0,1.075334454E1,-7.537391186E-1,1.046261668E0
3.659856474E0,1.141436195E1,-8.973084688E-1,9.314061999E-1
3.662346214E0,1.214177990E1,-9.888339639E-1,7.878368497E-1
3.664835953E0,1.298465252E1,-1.132403374E0,6.251249313E-1
3.667325693E0,1.383709526E1,-1.247258782E0,4.001995921E-1
3.669815485E0,1.453161144E1,-1.314257860E0,2.374876440E-1
3.672305224E0,1.517288876E1,-1.357328653E0,8.374879509E-2
3.674781526E0,1.578126335E1,-1.443470240E0,-3.589234129E-2
3.677270849E0,1.603490257E1,-1.534397483E0,-1.555334777E-1
3.679760276E0,1.624547195E1,-1.630110383E0,-1.890329868E-1
3.682249703E0,1.625504303E1,-1.744965911E0,-4.067798331E-2
3.684739078E0,1.598704624E1,-1.869392633E0,1.465603858E-1
3.687228505E0,1.591047573E1,-1.926820397E0,5.006981492E-1
3.689717933E0,1.546062565E1,-1.965703845E0,8.931210637E-1
3.692207308E0,1.515853119E1,-1.917249203E0,1.453639746E0
3.694696630E0,1.397109318E1,-1.831107497E0,1.884347796E0
3.697185953E0,1.302772331E1,-1.783251047E0,2.320439816E0
3.699675380E0,1.253001595E1,-1.634896040E0,2.674577475E0
3.702164808E0,1.212263775E1,-1.515254974E0,2.837289333E0
3.704654183E0,1.189292717E1,-1.524826288E0,2.612364054E0
3.707143610E0,1.118883896E1,-1.319043517E0,2.588435888E0
3.709632985E0,1.009232807E1,-1.156331539E0,2.430509567E0
3.712122412E0,9.422337532E0,-1.060618639E0,2.008774519E0
3.714611735E0,8.919246674E0,-9.361918569E-1,1.735992789E0
3.717101058E0,8.469395638E0,-6.963114142E-1,1.750349760E0
3.719590485E0,7.377670288E0,-5.144568682E-1,1.903490424E0
3.722079860E0,6.477370739E0,-4.522434771E-1,2.023131609E0
3.724569287E0,5.438287735E0,-3.421736360E-1,2.478366137E0
3.727058662E0,4.700700283E0,-2.656033039E-1,2.909074068E0
3.729548089E0,4.767699242E0,-4.043870270E-1,2.339582443E0
3.732037464E0,4.447061062E0,-5.623133183E-1,1.731207132E0
3.734524547E0,3.809971809E0,-6.484549642E-1,2.243869543E0
3.737013818E0,3.293122053E0,-6.867401004E-1,2.382653236E0
3.739503193E0,2.737389088E0,-8.207381964E-1,2.416152716E0
3.741992516E0,2.502892494E0,-9.409775138E-1,2.373081923E0
3.744481839E0,2.254039049E0,-9.649057388E-1,2.406581402E0
3.746971214E0,1.986042738E0,-1.036690354E0,2.521436930E0
3.749460537E0,2.177468538E0,-1.017547846E0,2.708076954E0
3.751949912E0,2.498106956E0,-1.074975610E0,2.636292458E0
3.754452880E0,3.135195971E0,-1.065404296E0,2.621935368E0
3.756942516E0,3.872185230E0,-1.012762189E0,2.645863533E0
3.759432203E0,4.662415028E0,-1.022333503E0,2.645863533E0
3.761921891E0,5.404788017E0,-1.031904817E0,2.617149830E0
3.764411526E0,5.964708805E0,-1.079761267E0,2.684148788E0
3.766901214E0,6.525227547E0,-1.132403374E0,2.693720102E0
3.769390901E0,6.912864685E0,-1.266401410E0,2.435295343E0
3.771880589E0,7.401598454E0,-1.438684583E0,2.248655081E0
3.774354651E0,7.770093441E0,-1.601396561E0,2.109273195E0
3.776843922E0,8.090731621E0,-1.716252089E0,2.061416626E0
3.779333193E0,8.483752251E0,-1.888535261E0,2.161915302E0
3.781822464E0,8.799605370E0,-1.941177368E0,2.325225353E0
3.784311787E0,9.172885895E0,-2.090130568E0,2.468794823E0
3.786801058E0,9.608977318E0,-2.200200319E0,2.698505640E0
3.789290328E0,1.010189915E1,-2.338984251E0,2.961716175E0
3.791779651E0,1.061934662E1,-2.449054003E0,3.220141172E0
3.794254130E0,1.107876873E1,-2.616551638E0,3.498306751E0
3.796742985E0,1.138564873E1,-2.673979282E0,3.756731510E0
3.799231891E0,1.157228851E1,-2.774477959E0,4.110869408E0
3.801720849E0,1.162493038E1,-2.855833769E0,4.470390797E0
3.804209755E0,1.166321564E1,-2.855833769E0,4.867599487E0
3.806698662E0,1.159621716E1,-2.874976397E0,5.221737385E0
3.809187568E0,1.135214901E1,-2.846262455E0,5.576473236E0
3.811676474E0,1.109791183E1,-2.678765059E0,5.830112457E0
3.814207099E0,1.069591713E1,-2.420340061E0,6.002395630E0
3.816696995E0,1.015454102E1,-2.200200319E0,6.050251961E0
3.819186943E0,9.604191780E0,-1.888535261E0,5.916254044E0
3.821676891E0,9.005388260E0,-1.529611826E0,5.758327484E0
3.824166891E0,8.517251968E0,-1.213759303E0,5.519045353E0
3.826656839E0,8.057231903E0,-8.350951076E-1,5.226522923E0
3.829146787E0,7.693522930E0,-4.761717021E-1,4.881956577E0
3.831636787E0,7.411170006E0,-7.417750359E-2,4.628317356E0
3.834106787E0,7.320242882E0,2.327020019E-1,4.302893162E0
3.836573245E0,7.210172653E0,4.911268353E-1,4.091726780E0
3.839062151E0,7.080362320E0,7.256234884E-1,3.933800459E0
3.841551058E0,6.960721016E0,8.979067206E-1,3.948157310E0
3.844039912E0,6.850651264E0,1.079761267E0,3.976871252E0
3.846528818E0,6.783652306E0,1.176072359E0,4.082155228E0
3.849017724E0,6.874579430E0,1.185643673E0,4.058227062E0
3.851506630E0,6.922435760E0,1.257428288E0,4.206582069E0
3.854022568E0,7.051648140E0,1.281356573E0,4.365106583E0
3.856512099E0,7.392027378E0,1.266999602E0,4.551746845E0
3.859001683E0,8.014161110E0,1.257428288E0,4.494318962E0
3.861491266E0,8.761320114E0,1.113260746E0,4.312464714E0
3.863980849E0,9.465408325E0,9.936196208E-1,4.283152580E0
3.866470380E0,1.009232807E1,9.218349457E-1,4.403391838E0
3.868959964E0,1.060977554E1,8.021938205E-1,4.523033142E0
3.871449547E0,1.089691448E1,6.155536175E-1,4.661816597E0
3.873928922E0,1.114098263E1,4.815555513E-1,4.738387108E0
3.876418193E0,1.131864929E1,3.284149170E-1,4.862813950E0
3.878907516E0,1.144307613E1,5.503492057E-2,4.877170563E0
3.881396839E0,1.154357433E1,-2.608176768E-1,4.795814991E0
3.883886162E0,1.173978615E1,-6.771687865E-1,4.570889473E0
3.886375485E0,1.212263775E1,-1.113260746E0,4.312464714E0
3.888864808E0,1.246301651E1,-1.481755376E0,4.048655987E0
3.891354130E0,1.273579884E1,-1.768894196E0,3.871587038E0
3.893860016E0,1.323350525E1,-2.090130568E0,3.603590965E0
3.896349703E0,1.352602863E1,-2.401197433E0,2.937788010E0
3.898839391E0,1.302772331E1,-2.554338217E0,2.708076954E0
3.901329130E0,1.247258759E1,-2.520838737E0,2.602792740E0
3.903818870E0,1.132822037E1,-2.358126640E0,3.028715372E0
3.906308610E0,1.024068260E1,-2.152343988E0,3.244069338E0
3.908798349E0,9.120243073E0,-1.764108539E0,3.340380430E0
3.911288089E0,8.062017441E0,-1.347757339E0,3.522234917E0
3.913772985E0,7.411170006E0,-9.457631707E-1,3.651447296E0
3.916262568E0,6.836294174E0,-5.048855543E-1,3.541377544E0
3.918752151E0,6.046064377E0,-9.332008660E-2,3.574877024E0
3.921241787E0,5.538786411E0,2.279163599E-1,3.622733593E0
3.923731370E0,5.261219025E0,4.432703853E-1,3.622733593E0
3.926221005E0,5.165505886E0,5.629115105E-1,3.728017569E0
3.928710589E0,5.227719307E0,6.729813814E-1,3.823730469E0
3.931200224E0,5.342574596E0,6.634100676E-1,3.814159393E0
3.933692568E0,5.476572990E0,6.921239495E-1,3.852444410E0
3.936182203E0,5.744568825E0,5.868397355E-1,3.871587038E0
3.938671891E0,5.940780640E0,2.901297510E-1,3.737588882E0
3.941161526E0,6.132804394E0,5.024927482E-2,3.488735437E0
3.943651214E0,6.104090691E0,-2.273181528E-1,3.302095175E0
3.946140901E0,6.405586243E0,-3.996013701E-1,3.110071182E0
3.948630589E0,6.884150982E0,-5.623133183E-1,2.913859844E0
3.951120276E0,7.564310551E0,-7.345965505E-1,2.660220623E0
3.953590276E0,8.095517159E0,-7.106683254E-1,2.449652195E0
3.956045120E0,8.579465866E0,-7.298108935E-1,2.454437733E0
3.958533453E0,8.828319550E0,-6.388836503E-1,2.286940336E0
3.961021787E0,9.158528328E0,-6.388836503E-1,2.061416626E0
3.963510120E0,9.326624870E0,-6.340979934E-1,1.865205288E0
3.965998453E0,9.570692062E0,-6.532405615E-1,1.879562140E0
3.968486787E0,9.814760208E0,-6.532405615E-1,2.094916344E0
3.970975172E0,1.017846966E1,-7.920243144E-1,2.118844509E0
3.973516839E0,1.029870892E1,-8.973084688E-1,2.066202402E0
3.976006474E0,1.025085258E1,-9.074779749E-1,2.123630047E0
3.978496162E0,1.016411209E1,-9.361918569E-1,2.123630047E0
3.980985797E0,1.024068260E1,-9.361918569E-1,2.047059774E0
3.983475485E0,1.035613632E1,-9.218349457E-1,1.836491346E0
3.985965172E0,1.037527943E1,-8.494520187E-1,1.558923960E0
3.988454860E0,9.824331284E0,-7.680960894E-1,1.563709617E0
3.990944547E0,9.508479118E0,-6.245267391E-1,1.534995675E0
3.993421891E0,9.005388260E0,-3.182454109E-1,2.094916344E0
3.995911214E0,8.713463783E0,-1.316052526E-1,2.966501951E0
3.998400589E0,8.042875290E0,1.513460279E-1,3.632304668E0
4.000889964E0,8.206185341E0,3.714857101E-1,4.379463673E0
4.003379339E0,8.469395638E0,4.767699242E-1,4.901099205E0
4.005868662E0,8.646464348E0,5.916253924E-1,5.447260857E0
4.008358037E0,8.675178528E0,5.485545993E-1,5.815755367E0
4.010847412E0,8.790034294E0,6.586244106E-1,5.830112457E0
4.013349964E0,8.828319550E0,7.639086246E-1,5.653043270E0
4.015839599E0,8.608179092E0,8.500502706E-1,5.418546677E0
4.018329287E0,8.416753769E0,9.553344250E-1,5.015954494E0
4.020818974E0,8.167900085E0,1.012762189E0,4.628317356E0
4.023308714E0,7.908876896E0,1.031904817E0,4.173082829E0
4.025798401E0,7.712665558E0,1.089332461E0,3.790230989E0
4.028288089E0,7.607381344E0,1.017547846E0,3.531806231E0
4.030777776E0,7.549953461E0,9.553344250E-1,3.278167009E0
4.033266422E0,7.444669247E0,8.787640929E-1,3.186641455E0
4.035756058E0,7.368099213E0,7.447660565E-1,3.186641455E0
4.038245693E0,7.277172089E0,6.681957245E-1,3.210569859E0
4.040735380E0,7.214958668E0,5.964110494E-1,3.253640652E0
4.043225068E0,7.167101860E0,6.155536175E-1,3.373879910E0
4.045714703E0,7.167101860E0,6.969096065E-1,3.507878065E0
4.048204391E0,7.401598454E0,7.160521746E-1,3.546163082E0
4.050694078E0,7.573882103E0,7.830511928E-1,3.646661758E0
4.053179860E0,7.707880020E0,8.165507317E-1,3.656233072E0
4.055669391E0,7.966304779E0,9.122636318E-1,3.555734396E0
4.058158974E0,8.301898003E0,9.936196208E-1,3.617947817E0
4.060648558E0,8.522037506E0,1.055832982E0,3.684946775E0
4.063138089E0,8.641678810E0,1.170688510E0,3.818944931E0
4.065627672E0,8.665607452E0,1.156331539E0,4.024727821E0
4.068117255E0,8.598608017E0,1.180858016E0,4.096512318E0
4.070606839E0,8.402397156E0,1.214357495E0,4.197010994E0
4.073063141E0,8.196614265E0,1.233500123E0,4.283152580E0
4.075551839E0,8.234899521E0,1.343569875E0,4.298107624E0
4.078040589E0,8.364111900E0,1.310070395E0,4.034298897E0
4.080529287E0,8.684749603E0,1.176072359E0,3.584448338E0
4.083018037E0,9.153742790E0,8.979067206E-1,3.052643538E0
4.085506787E0,9.752547264E0,4.336991012E-1,2.578864574E0
4.087995537E0,1.028435135E1,-1.124626622E-1,2.214557409E0
4.090484235E0,1.070070267E1,-6.436693072E-1,1.898704767E0
4.093002308E0,1.114576817E1,-1.094118118E0,1.578066587E0
4.095491735E0,1.137607670E1,-1.610967875E0,1.420140266E0
4.097981162E0,1.139043427E1,-1.946561217E0,1.257428288E0
4.100470641E0,1.111226845E1,-2.195414782E0,1.204786181E0
4.102960120E0,1.071027374E1,-2.372483730E0,1.228714466E0
4.105449599E0,1.000618649E1,-2.358126640E0,1.266999602E0
4.107939078E0,9.608977318E0,-2.343769789E0,1.281356573E0
4.110428558E0,9.192028046E0,-2.252842426E0,1.424925923E0
4.112923349E0,9.211769104E0,-2.142772675E0,1.697707653E0
4.115412933E0,9.776474953E0,-1.859821439E0,2.291725874E0
4.117902516E0,1.030827999E1,-1.563111424E0,2.904288530E0
4.120392099E0,1.049491978E1,-1.266401410E0,3.210569859E0
4.122881735E0,1.058584690E1,-1.065404296E0,3.311666489E0
4.125371318E0,1.065763187E1,-8.494520187E-1,3.359523058E0
4.127860953E0,1.080120182E1,-6.915257573E-1,3.574877024E0
4.130350537E0,1.057149029E1,-5.431707501E-1,3.780659676E0
4.132819808E0,1.002532864E1,-3.326023519E-1,3.967299938E0
4.135308870E0,9.494122505E0,-1.842473447E-1,4.230510235E0
4.137797933E0,9.125029564E0,-5.982056633E-2,4.532604218E0
4.140287047E0,8.928817749E0,1.417747438E-1,4.724030018E0
4.142776110E0,8.684749603E0,5.676971674E-1,5.001597404E0
4.145265224E0,8.799605370E0,6.969096065E-1,5.269593716E0
4.147754339E0,8.684749603E0,6.921239495E-1,4.992026329E0
4.150243401E0,8.478966713E0,6.634100676E-1,4.604389191E0
4.152749495E0,8.670392990E0,6.107679605E-1,4.331607342E0
4.155238922E0,8.981459618E0,4.863412082E-1,4.144368649E0
4.157728453E0,9.125029564E0,3.667000830E-1,3.866801500E0
4.160217985E0,9.570692062E0,1.561316848E-1,3.665804386E0
4.162707464E0,9.929615974E0,-2.153540403E-2,3.378665686E0
4.165196995E0,1.020718288E1,-1.411765367E-1,3.071786165E0
4.167686526E0,1.040399265E1,-3.613162339E-1,2.813361168E0
4.170176058E0,1.072463131E1,-5.000999570E-1,2.420938253E0
4.172651370E0,1.111705399E1,-7.393822074E-1,2.085345030E0
4.175140485E0,1.127976608E1,-9.840483069E-1,1.817348838E0
4.177629599E0,1.147179031E1,-1.204187989E0,1.659422517E0
4.180118766E0,1.156271744E1,-1.342971683E0,1.592423439E0
4.182607933E0,1.154835987E1,-1.472184181E0,1.511067510E0
4.185097099E0,1.117926693E1,-1.505683661E0,1.415354609E0
4.187586266E0,1.088734341E1,-1.491326690E0,1.405783296E0
4.190075433E0,1.065763187E1,-1.338186026E0,1.731207132E0
4.192578558E0,1.035613632E1,-1.132403374E0,2.094916344E0
4.195067985E0,1.021196842E1,-9.457631707E-1,2.650649309E0
4.197557516E0,1.003489971E1,-7.441678643E-1,3.004786968E0
4.200046995E0,1.007797050E1,-4.905286431E-1,3.426522017E0
4.202536526E0,1.003011417E1,-2.512463629E-1,3.603590965E0
4.205026005E0,9.991828918E0,2.153540403E-2,3.651447296E0
4.207515537E0,1.012582684E1,1.316052526E-1,3.637090445E0
4.210005016E0,1.027478027E1,1.848455518E-1,3.646661758E0
4.212490276E0,1.018325520E1,1.896311939E-1,3.598805189E0
4.214979599E0,9.900901794E0,1.944168359E-1,3.326023579E0
4.217469026E0,9.757332802E0,1.028913707E-1,3.071786165E0
4.219958401E0,9.867402077E0,1.172483116E-1,3.071786165E0
4.222447828E0,9.905687332E0,2.231307179E-1,2.990430117E0
4.224937203E0,9.470193863E0,2.422732860E-1,2.952144861E0
4.227426630E0,9.412766457E0,1.609173268E-1,3.311666489E0
4.229916005E0,9.355338097E0,1.076770201E-1,3.565305710E0
4.232414860E0,9.115457535E0,2.231307179E-1,3.756731510E0
4.234904443E0,9.029315948E0,3.858426511E-1,3.828516245E0
4.237394078E0,8.593822479E0,6.107679605E-1,3.933800459E0
4.239883714E0,8.397610664E0,8.644071817E-1,4.292723656E0
4.242373349E0,7.990232944E0,1.127617717E0,4.532604218E0
4.244862985E0,7.731808186E0,1.525424480E0,5.044668198E0
4.247352620E0,7.248457909E0,1.869990945E0,5.375475883E0
4.249842255E0,6.759724140E0,2.200200319E0,5.743970871E0
4.252293714E0,6.415157318E0,2.598007202E0,5.997610092E0
4.254782308E0,6.180660725E0,2.971287489E0,6.203392506E0
4.257271005E0,6.084349632E0,3.196212769E0,6.318248272E0
4.259759651E0,6.079564095E0,3.167499065E0,6.424130440E0
4.262248349E0,6.324230194E0,3.167499065E0,6.586842537E0
4.264736995E0,6.697510719E0,3.062214851E0,6.725626469E0
4.267225693E0,6.951149940E0,2.894717216E0,6.830910206E0
4.269714339E0,7.262814999E0,2.751147747E0,6.940980434E0
4.272212672E0,7.741379261E0,2.368296146E0,6.969694138E0
4.274701578E0,8.177471161E0,1.917847395E0,6.883552551E0
4.277190485E0,8.656036377E0,1.434497118E0,6.524629116E0
4.279679391E0,9.101100922E0,7.734799385E-1,5.954539299E0
4.282168297E0,9.465408325E0,1.992024779E-1,5.183452129E0
4.284657203E0,9.680762291E0,-4.331009090E-1,4.341178417E0
4.287146110E0,9.929615974E0,-1.036690354E0,3.464807272E0
4.289635016E0,1.015932655E1,-1.615753531E0,2.540579557E0
4.292132516E0,1.057627583E1,-2.176272154E0,1.625923038E0
4.294621578E0,1.111226845E1,-2.693121910E0,4.959124923E-1
4.297110693E0,1.185464191E1,-3.138785124E0,-7.968099117E-1
4.299599860E0,1.261137199E1,-3.679563046E0,-2.070987940E0
4.302088974E0,1.313300705E1,-4.077369690E0,-3.363710403E0
4.304578089E0,1.367438316E1,-4.498506546E0,-4.402793884E0
4.307067203E0,1.387538052E1,-4.890929699E0,-5.236093998E0
4.309556370E0,1.382752419E1,-5.255236626E0,-5.882156372E0
4.312037985E0,1.360259819E1,-5.350949764E0,-6.184250355E0
4.314526839E0,1.319043446E1,-5.307878971E0,-6.054439545E0
4.317015797E0,1.241516018E1,-5.068596363E0,-5.781657696E0
4.319504703E0,1.172064304E1,-4.756931305E0,-5.130809784E0
4.321993662E0,1.087777138E1,-4.235296249E0,-4.216153622E0
4.324482620E0,9.963115692E0,-3.650849104E0,-3.258426189E0
4.326971526E0,8.991030693E0,-2.927618504E0,-2.161915302E0
4.329460485E0,8.220541954E0,-2.114058733E0,-9.696913958E-1
4.331956110E0,7.549953461E0,-1.342971683E0,1.172483116E-1
4.334445172E0,6.845865726E0,-6.245267391E-1,1.098903775E0
4.336934287E0,6.443871498E0,4.067798331E-2,1.874776483E0
4.339423349E0,6.453442574E0,5.916253924E-1,2.526222467E0
4.341912464E0,6.616154671E0,1.065404296E0,3.119642496E0
4.344401578E0,6.563512325E0,1.396211982E0,3.565305710E0
4.346890693E0,6.381658077E0,1.688136339E0,4.101297855E0
4.349379808E0,5.428716183E0,1.788634896E0,4.341178417E0
4.351873610E0,4.078566074E0,1.750349760E0,4.422534466E0
4.354362776E0,3.580260992E0,1.683350682E0,4.968098164E0
4.356851995E0,3.752544165E0,1.635494232E0,5.854040623E0
4.359341214E0,4.470989227E0,1.702493310E0,6.562914371E0
4.361830433E0,5.696712494E0,1.893919110E0,7.003193855E0
4.364319651E0,6.850651264E0,2.023131609E0,7.544569969E0
4.366808870E0,7.789236069E0,2.204986095E0,8.099704742E0
4.369298089E0,8.474181175E0,2.377867460E0,8.453842163E0
4.371780433E0,8.986245155E0,2.411366940E0,8.535796165E0
4.374269443E0,9.211769104E0,2.507079840E0,8.598010063E0
4.376758505E0,9.211769104E0,2.511865616E0,8.545368195E0
4.379247516E0,8.962317467E0,2.416152716E0,8.655437469E0
4.381736578E0,8.498109818E0,2.425724030E0,8.598010063E0
4.384225641E0,8.071588516E0,2.392224550E0,8.550153732E0
4.386714651E0,7.502097130E0,2.401795626E0,8.353343964E0
4.389203714E0,7.075576782E0,2.507079840E0,8.161917686E0
4.391703818E0,6.798008919E0,2.492722988E0,8.219346046E0
4.394193089E0,6.376872540E0,2.358724833E0,8.271987915E0
4.396682412E0,5.151148796E0,2.128415823E0,7.984848976E0
4.399171735E0,4.332205296E0,1.817348838E0,7.678567886E0
4.401661058E0,3.321835995E0,1.511067510E0,7.400402069E0
4.404150380E0,2.555534601E0,1.381855130E0,7.208976269E0
4.406639703E0,2.574677229E0,1.243071318E0,7.515855789E0
4.409129026E0,2.713460922E0,1.017547846E0,7.645068169E0
4.411643297E0,2.727817774E0,6.586244106E-1,7.137191772E0
4.414133193E0,3.565903902E0,4.528416991E-1,6.370890141E0
4.416623141E0,4.935196877E0,4.528416991E-1,6.074180126E0
4.419113089E0,6.702296257E0,1.172483116E-1,6.381059647E0
4.421603037E0,8.589036942E0,-2.129612118E-1,5.782256126E0
4.424092985E0,1.044227791E1,-5.048855543E-1,4.982454777E0
4.426582933E0,1.219920826E1,-8.350951076E-1,4.235296249E0
4.429072880E0,1.397587872E1,-1.017547846E0,3.479164124E0
4.431548089E0,1.558983803E1,-1.146760225E0,2.574079037E0
4.434037620E0,1.688734627E1,-1.204187989E0,1.951346874E0
4.436527203E0,1.773500252E1,-1.199402332E0,1.257428288E0
4.439016787E0,1.840977859E1,-1.132403374E0,6.921239495E-1
4.441506370E0,1.871665955E1,-9.505487680E-1,4.719842672E-1
4.443995953E0,1.798385620E1,-8.542376757E-1,4.719842672E-1
4.446485537E0,1.643211174E1,-8.542376757E-1,4.815555513E-1
4.448975120E0,1.461296749E1,-7.585247755E-1,4.863412082E-1
4.451450328E0,1.294636726E1,-3.661018610E-1,5.150550604E-1
4.453939495E0,1.155314636E1,-2.225325108E-1,6.538388133E-1
4.456428714E0,1.022632599E1,-9.332008660E-2,8.596215248E-1
4.458917933E0,9.053244591E0,1.674975827E-2,1.122832060E0
4.461407151E0,7.755736351E0,-2.129612118E-1,1.190429211E0
4.463896370E0,7.985447407E0,-2.321037948E-1,1.487139225E0
4.466385589E0,8.517251968E0,-2.751746178E-1,1.750349760E0
4.468874808E0,8.799605370E0,-5.431707501E-1,1.621137381E0
4.471356943E0,9.307481766E0,-7.824530005E-1,1.156331539E0
4.473845901E0,9.987043381E0,-9.553344250E-1,4.001995921E-1
4.476334964E0,1.009232807E1,-1.175474167E0,-9.122636318E-1
4.478823974E0,8.962317467E0,-1.845464468E0,-3.909274101E0
4.481313037E0,5.648856163E0,-3.406781197E0,-1.011984539E1
4.483802047E0,1.152742267E0,-5.614160061E0,-1.734557152E1
4.486291110E0,-8.733802289E-2,-6.964310169E0,-1.985504341E1
4.488780172E0,2.809173822E0,-6.686742783E0,-1.613420486E1
4.491275849E0,6.036493301E0,-5.819942951E0,-9.775279045E0
4.493765016E0,8.182256699E0,-5.274379253E0,-4.153940201E0
4.496254235E0,8.914461136E0,-4.962714195E0,4.067798331E-2
4.498743401E0,8.665607452E0,-4.814359188E0,3.172284603E0
4.501232620E0,8.018946648E0,-4.795216560E0,6.031109333E0
4.503721839E0,7.688737392E0,-4.622933388E0,7.960920811E0
4.506211005E0,7.516454220E0,-4.383651257E0,9.052646637E0
4.508700224E0,7.918448448E0,-3.818346739E0,9.373284340E0
4.511207047E0,8.435895920E0,-2.946761131E0,9.019146919E0
4.513696630E0,9.465408325E0,-1.936391711E0,8.023134232E0
4.516186266E0,1.029870892E1,-8.063812256E-1,6.744768620E0
4.518675953E0,1.083948612E1,2.709871531E-1,5.288736343E0
4.521165589E0,1.056670475E1,1.031904817E0,4.177868366E0
4.523655224E0,9.766903877E0,1.578066587E0,3.512663603E0
4.526144860E0,8.598608017E0,2.018345833E0,3.431307554E0
4.528634495E0,7.569096088E0,2.219941139E0,3.675375462E0
4.531110745E0,6.707081795E0,2.176272154E0,3.929014683E0
4.533600016E0,6.166304111E0,1.970489502E0,3.972085476E0
4.536089339E0,6.094519138E0,1.415354609E0,4.149154663E0
4.538578662E0,6.745367050E0,5.868397355E-1,4.518247128E0
4.541067933E0,8.028517723E0,-5.240281820E-1,4.800600529E0
4.543557255E0,9.589835167E0,-1.630110383E0,4.781457901E0
4.546046578E0,1.057627583E1,-2.626122952E0,4.398606300E0
4.548560016E0,1.093998528E1,-3.579064369E0,3.574877024E0
4.551049339E0,1.125105190E1,-4.551148891E0,2.344367981E0
4.553538558E0,1.173021507E1,-5.595017433E0,8.404789567E-1
4.556027880E0,1.240080357E1,-6.519245148E0,-5.335994363E-1
4.558517203E0,1.336810207E1,-6.859025955E0,-1.620539188E0
4.561006526E0,1.390409374E1,-6.504888535E0,-2.161915302E0
4.563495797E0,1.398066425E1,-5.906084538E0,-2.549552441E0
4.565985120E0,1.403330708E1,-5.126024246E0,-2.626122952E0
4.568474443E0,1.412423420E1,-4.268795490E0,-2.386840582E0
4.570941839E0,1.451725483E1,-3.468994617E0,-1.610967875E0
4.573430537E0,1.472303772E1,-2.693121910E0,-9.810572863E-2
4.575919287E0,1.402373505E1,-1.840678811E0,1.295713425E0
4.578408089E0,1.254437256E1,-1.309472203E0,2.502294302E0
4.580896839E0,1.076291656E1,-5.670989752E-1,3.253640652E0
4.583385589E0,8.143373489E0,5.198407173E-1,2.990430117E0
4.585874339E0,7.813164234E0,1.357926846E0,3.047857761E0
4.588363141E0,9.043673515E0,9.936196208E-1,3.028715372E0
4.590841370E0,1.024068260E1,-9.332008660E-2,3.531806231E0
4.593329860E0,1.040877819E1,-1.189831018E0,3.196212769E0
4.595818349E0,9.632905960E0,-1.778465390E0,3.062214851E0
4.598306839E0,9.766903877E0,-2.281556368E0,3.378665686E0
4.600795328E0,9.556335449E0,-2.578266382E0,3.574877024E0
4.603283818E0,8.282755852E0,-2.654836655E0,4.201796532E0
4.605772308E0,8.340183258E0,-2.630908489E0,4.106083870E0
4.608260849E0,7.899305820E0,-2.750549555E0,3.771088600E0
4.610756891E0,7.018148899E0,-2.721835852E0,3.349951744E0
4.613245485E0,6.142375946E0,-2.410768747E0,3.038286448E0
4.615734183E0,4.466203690E0,-1.821536183E0,2.406581402E0
4.618222880E0,4.035495281E0,-1.041476011E0,2.310868502E0
4.620711578E0,2.962314367E0,-1.986042857E-1,2.204986095E0
4.623200276E0,1.904088616E0,3.906283081E-1,2.224726915E0
4.625688922E0,5.539384484E-1,9.984052777E-1,2.310868502E0
4.628177620E0,1.167099237E0,1.530210137E0,2.521436930E0
4.630670172E0,1.195813060E0,1.846062660E0,2.363510609E0
4.633158922E0,3.551547050E0,1.635494232E0,3.181855917E0
4.635647724E0,2.799602509E0,1.477568030E0,3.043072224E0
4.638136474E0,1.707877159E0,1.731207132E0,3.378665686E0
4.640625276E0,2.584248543E0,1.716850281E0,4.177868366E0
4.643114026E0,2.143969059E0,1.310070395E0,3.871587038E0
4.645602828E0,2.459821701E0,1.472782373E0,5.791827202E0
4.648091630E0,4.853840828E0,1.649851203E0,8.377271652E0
4.650598297E0,6.577869415E0,1.286142230E0,1.028315544E1
4.653087464E0,7.971090317E0,4.528416991E-1,1.156152058E1
4.655576683E0,8.804390907E0,-2.464607358E-1,1.292662621E1
4.658065901E0,1.049970531E1,-6.819544435E-1,1.436291790E1
4.660555172E0,1.253001595E1,-8.494520187E-1,1.503350639E1
4.663044391E0,1.224227905E1,-7.441678643E-1,1.415234947E1
4.665533610E0,9.666405678E0,-6.532405615E-1,1.224168110E1
4.668022828E0,8.321041107E0,-7.680960894E-1,1.040279675E1
4.670503662E0,7.195816040E0,-1.170688510E0,8.425128937E0
4.672992620E0,7.951947689E0,-1.960918188E0,6.601199627E0
4.675481683E0,7.597810268E0,-2.884547710E0,3.905086517E0
4.677970693E0,9.201599121E0,-4.627718925E0,8.691928387E-1
4.680459703E0,1.104526901E1,-6.246463299E0,-2.056631088E0
4.682948714E0,9.833903313E0,-8.300702095E0,-5.350949764E0
4.685437724E0,9.384052277E0,-1.024427223E1,-8.262416840E0
4.687926735E0,1.117448139E1,-1.202094269E1,-1.105364418E1
4.690425068E0,1.318564892E1,-1.347697544E1,-1.363968754E1
4.692914235E0,1.083470058E1,-1.448734474E1,-1.604806328E1
4.695403505E0,1.241037464E1,-1.460220051E1,-1.606241989E1
4.697892724E0,9.781260490E0,-1.388375473E1,-1.618684769E1
4.700381995E0,1.022154045E1,-1.297388458E1,-1.453041553E1
4.702871266E0,6.002993584E0,-1.102971554E1,-1.352961731E1
4.705360485E0,3.742972851E0,-9.311071396E0,-1.022991467E1
4.707849755E0,4.145565033E0,-7.639684677E0,-7.969893932E0
4.710341891E0,4.418346882E0,-6.447460651E0,-6.165107727E0
4.712831162E0,5.103292465E0,-5.556732178E0,-4.359723091E0
4.715320485E0,7.032505512E0,-4.823930264E0,-2.563909531E0
4.717809808E0,1.056670475E1,-4.441078663E0,-8.973084688E-1
4.720299130E0,1.240080357E1,-3.866203070E0,3.236292601E-1
4.722788453E0,1.572383595E1,-3.258426189E0,2.248655081E0
4.725277776E0,1.417687607E1,-2.319841623E0,3.369094372E0
4.727767099E0,1.250130177E1,-1.864607096E0,4.752744198E0
4.730257620E0,1.022632599E1,-1.161117196E0,5.346762180E0
4.732746943E0,9.896116257E0,-1.419542074E0,6.232106686E0
4.735236266E0,9.321838379E0,-2.094916344E0,5.825326920E0
4.737725641E0,1.122712421E1,-1.266401410E0,7.554141045E0
4.740214964E0,1.371745396E1,-2.560320199E-1,8.564510345E0
4.742704339E0,1.398544979E1,8.356932998E-1,8.305487633E0
4.745193662E0,1.207956696E1,1.587637782E0,7.290332317E0
4.747683037E0,1.057627583E1,1.879562140E0,6.582056999E0
4.750167255E0,1.193599796E1,1.348355532E0,6.591628075E0
4.752656422E0,1.297029495E1,6.586244106E-1,5.452046394E0
4.755145641E0,1.296072388E1,-1.938186288E-1,4.072584152E0
4.757634860E0,1.226620674E1,-6.484549642E-1,3.775874138E0
4.760124078E0,1.101177025E1,-7.585247755E-1,4.067798615E0
4.762613297E0,9.374481201E0,-3.996013701E-1,5.509474277E0
4.765102516E0,8.981459618E0,-4.522434771E-1,6.452844620E0
4.767591735E0,8.071588516E0,-5.527420044E-1,6.586842537E0
4.770075537E0,7.439883709E0,-3.469592929E-1,5.844469070E0
4.772564547E0,6.745367050E0,-1.141974568E0,4.786243439E0
4.775053662E0,5.639284611E0,-1.472184181E0,3.316452265E0
4.777542724E0,6.520441532E0,-2.415554523E0,2.550150633E0
4.780031839E0,7.683951855E0,-3.531208038E0,1.965703845E0
4.782520901E0,7.779664516E0,-4.972285271E0,1.300499082E0
4.785009964E0,6.898507595E0,-6.270391941E0,9.409775138E-1
4.787499078E0,5.801996708E0,-7.955537319E0,-6.460621208E-2
4.789997516E0,6.002993584E0,-8.898907661E0,-5.431707501E-1
4.792486787E0,7.191030025E0,-9.209974289E0,-4.426721931E-1
4.794976110E0,8.119445801E0,-9.287142754E0,-1.890329868E-1
4.797465433E0,8.751749039E0,-8.898907661E0,-5.383850932E-1
4.799954755E0,9.474979401E0,-8.606983185E0,-1.649253011E0
4.802444078E0,1.018325520E1,-8.195417404E0,-2.573480844E0
4.804933401E0,1.011625576E1,-7.606184959E0,-2.995215654E0
4.807422724E0,9.728618622E0,-7.131807804E0,-3.602992773E0
4.809923818E0,9.269196510E0,-6.610172749E0,-4.713860512E0
4.812413401E0,8.675178528E0,-6.160321712E0,-5.283950806E0
4.814902985E0,8.852247238E0,-5.829514027E0,-5.197809219E0
4.817392620E0,8.249256134E0,-5.317450047E0,-4.666004181E0
4.819882203E0,7.803592682E0,-4.962714195E0,-3.607778311E0
4.822371839E0,7.569096088E0,-4.560719967E0,-2.142772675E0
4.824861422E0,7.013363361E0,-4.331008911E0,-3.708875179E-1
4.827351058E0,7.109076023E0,-4.354937077E0,1.103689432E0
4.829829078E0,7.741379261E0,-4.551148891E0,2.325225353E0
4.832318349E0,8.378468513E0,-5.024927616E0,2.894717216E0
4.834807672E0,8.526823044E0,-5.240880013E0,3.129213810E0
4.837296995E0,8.498109818E0,-5.580660820E0,3.143570662E0
4.839786318E0,8.373682976E0,-5.752943993E0,3.340380430E0
4.842275641E0,8.340183258E0,-5.805585861E0,3.393022537E0
4.844764964E0,8.042875290E0,-5.810371399E0,3.119642496E0
4.847254287E0,8.569893837E0,-6.092724800E0,3.057429075E0
4.849739651E0,9.250054359E0,-5.958726406E0,2.727219582E0
4.852228818E0,1.002054310E1,-6.169893265E0,2.142772675E0
4.854718037E0,1.054277611E1,-6.452246189E0,1.635494232E0
4.857207255E0,1.054756260E1,-6.500102520E0,9.792626500E-1
4.859696474E0,1.003489971E1,-6.949953556E0,2.997010350E-1
4.862185693E0,9.570692062E0,-7.295117855E0,-1.124626622E-1
4.864674912E0,9.110671997E0,-7.500900745E0,-2.129612118E-1
4.867164130E0,8.947959900E0,-7.462615490E0,-5.024927482E-2
4.869682308E0,8.593822479E0,-7.687541008E0,2.327020019E-1
4.872172203E0,8.230113029E0,-7.850253105E0,6.299105883E-1
4.874662151E0,7.995018482E0,-7.807182312E0,8.644071817E-1
4.877152099E0,7.746165276E0,-7.687541008E0,1.017547846E0
4.879642047E0,8.316255569E0,-7.352545738E0,1.434497118E0
4.882131995E0,8.057231903E0,-7.543971539E0,1.381855130E0
4.884621891E0,8.589036942E0,-7.692326546E0,1.769492388E0
4.887111839E0,9.096315384E0,-7.457829952E0,2.080559254E0
4.889595953E0,8.928817749E0,-7.706683636E0,1.779063582E0
4.892085693E0,9.269196510E0,-7.711469173E0,2.042274237E0
4.894575537E0,9.221340179E0,-7.582256794E0,1.439282775E0
4.897065328E0,8.971888542E0,-7.362117290E0,1.338784218E0
4.899555120E0,9.010173798E0,-7.074379921E0,1.195214868E0
4.902044912E0,9.264410973E0,-6.748956203E0,7.016952634E-1
4.904534703E0,1.004447079E1,-6.763313293E0,2.662015259E-1
4.907024495E0,9.570692062E0,-6.418746948E0,4.767699242E-1
4.909506318E0,9.187242508E0,-6.117250919E0,8.596215248E-1
4.911995849E0,9.221340179E0,-6.016154289E0,1.141974568E0
4.914485485E0,9.148957253E0,-6.030511379E0,1.673779488E0
4.916975068E0,9.077172279E0,-6.025725842E0,2.123630047E0
4.919464651E0,9.407979965E0,-6.064010620E0,2.554936409E0
4.921954235E0,9.393623352E0,-6.165107727E0,2.918645382E0
4.924443870E0,9.235696793E0,-6.059225082E0,3.000001431E0
4.926933453E0,8.818747520E0,-5.896512985E0,3.181855917E0
4.929421110E0,8.660821915E0,-5.743372440E0,3.248854876E0
4.931910641E0,8.526823044E0,-5.609374523E0,3.071786165E0
4.934400172E0,8.598608017E0,-5.561518192E0,3.057429075E0
4.936889703E0,8.392825127E0,-5.461019516E0,3.009572744E0
4.939379287E0,8.254041672E0,-5.542375565E0,2.779861689E0
4.941868818E0,7.607381344E0,-4.182653904E0,5.198407173E-1
4.944358349E0,6.055635929E0,-1.792822361E0,-2.444268227E0
4.946847880E0,5.801996708E0,-1.730608940E0,-1.003190875E0
4.949323453E0,5.926423550E0,-1.874178290E0,3.110669367E-2
4.951812568E0,6.381658077E0,-2.386840582E0,9.696913958E-1
4.954301787E0,6.678368092E0,-3.090928555E0,1.606780410E0
4.956790953E0,7.066005230E0,-3.952344894E0,2.344367981E0
4.959280172E0,7.368099213E0,-4.689932346E0,2.866003275E0
4.961769339E0,7.655237675E0,-5.245665550E0,2.995215654E0
4.964258558E0,7.942376614E0,-5.638088226E0,2.626721144E0
4.966747724E0,7.923233986E0,-5.867799282E0,2.368296146E0
4.969250276E0,8.018946648E0,-5.958726406E0,2.118844509E0
4.971739755E0,8.076375008E0,-5.977869034E0,1.970489502E0
4.974229287E0,8.335397720E0,-6.174678802E0,2.234298229E0
4.976718818E0,8.507680893E0,-6.533602238E0,2.559721947E0
4.979208349E0,7.837092400E0,-7.031309128E0,2.660220623E0
4.981697880E0,8.531609535E0,-6.787241459E0,2.137987137E0
4.984187412E0,8.880961418E0,-6.442675114E0,2.282154560E0
4.986676943E0,8.531609535E0,-6.399604321E0,2.306082726E0
4.989148922E0,8.392825127E0,-6.294320107E0,2.051845312E0
4.991637985E0,7.932805061E0,-6.174678802E0,1.802991867E0
4.994127047E0,7.109076023E0,-6.361319065E0,1.645065546E0
4.996616162E0,7.267600536E0,-6.452246189E0,1.381855130E0
4.999105224E0,7.616952896E0,-6.471388817E0,1.247856975E0
5.001594339E0,7.200601578E0,-6.753741741E0,1.391426325E0
5.004083401E0,7.616952896E0,-6.844669342E0,1.520638824E0
5.006572464E0,7.597810268E0,-6.997809887E0,1.783849239E0
5.009076683E0,7.157530785E0,-7.275975227E0,2.128415823E0
5.011566058E0,7.176673412E0,-7.558328629E0,2.291725874E0
5.014055537E0,7.061219692E0,-7.754539967E0,2.578864574E0
5.016545016E0,7.037291527E0,-7.845467091E0,2.803789854E0
5.019034495E0,7.051648140E0,-7.883752346E0,2.775076151E0
5.021523922E0,7.099504948E0,-7.907680511E0,2.708076954E0
5.024013401E0,7.238886833E0,-7.869395256E0,2.521436930E0
5.026502880E0,7.167101860E0,-7.888537884E0,2.243869543E0
5.028964339E0,7.066005230E0,-8.027321815E0,1.960918188E0
5.031453037E0,6.879364967E0,-7.974679470E0,1.549352646E0
5.033941839E0,6.405586243E0,-7.926823139E0,1.544566989E0
5.036430589E0,6.065207005E0,-7.883752346E0,1.314856052E0
5.038919339E0,5.935994625E0,-7.888537884E0,9.505487680E-1
5.041408089E0,5.830710411E0,-7.802396297E0,8.261220455E-1
5.043896839E0,5.998208046E0,-7.721040249E0,8.165507317E-1
5.046385589E0,6.046064377E0,-7.539186001E0,1.089332461E0
5.048912776E0,6.405586243E0,-7.299903870E0,1.386640668E0
5.051402412E0,6.491727829E0,-6.902096748E0,1.798206210E0
5.053892151E0,6.659225464E0,-6.356533527E0,2.420938253E0
5.056381891E0,7.301100254E0,-5.628517151E0,2.799004316E0
5.058871578E0,7.406384468E0,-4.780859470E0,3.373879910E0
5.061361318E0,7.377670288E0,-4.192225456E0,4.072584152E0
5.063851005E0,7.214958668E0,-3.803989887E0,4.843671322E0
5.066340745E0,6.788437843E0,-3.674777269E0,5.643472195E0
5.068828089E0,6.482156754E0,-3.727419376E0,6.107679844E0
5.071317672E0,6.491727829E0,-3.981058598E0,6.701697826E0
5.073807360E0,5.323431969E0,-4.004986763E0,6.802196503E0
5.076296995E0,5.175076962E0,-3.832703590E0,6.596413612E0
5.078786683E0,5.404788017E0,-3.961916208E0,6.093322754E0
5.081276318E0,5.892923832E0,-4.192225456E0,5.361119270E0
5.083766005E0,6.338587284E0,-4.479363918E0,4.633102894E0
5.086255641E0,6.683153629E0,-4.785645485E0,4.029513359E0
5.088743922E0,7.042077065E0,-5.121238708E0,3.555734396E0
5.091233505E0,7.272386074E0,-5.475376606E0,3.297309637E0
5.093723141E0,7.482954502E0,-5.666802406E0,3.157927752E0
5.096212724E0,7.688737392E0,-5.810371399E0,3.062214851E0
5.098702360E0,7.655237675E0,-5.848656654E0,3.062214851E0
5.101191995E0,7.435098171E0,-5.729015827E0,3.067000389E0
5.103681630E0,7.210172653E0,-5.633302689E0,2.995215654E0
5.106171214E0,6.783652306E0,-5.599802971E0,2.980858803E0
5.108655328E0,6.587440968E0,-5.360520840E0,3.138785124E0
5.111144755E0,6.778866768E0,-5.317450047E0,3.412165165E0
5.113634235E0,7.008577347E0,-5.298307419E0,3.436093330E0
5.116123714E0,7.051648140E0,-5.188237667E0,3.455235958E0
5.118613193E0,6.855436802E0,-5.250451088E0,3.397808075E0
5.121102672E0,6.989434719E0,-5.303092957E0,3.181855917E0
5.123592151E0,7.066005230E0,-5.293521881E0,3.014358282E0
5.126081630E0,7.013363361E0,-5.240880013E0,2.822932482E0
5.128576266E0,7.075576782E0,-5.048855782E0,2.832503796E0
5.131065849E0,6.989434719E0,-4.857429981E0,2.856431961E0
5.133555433E0,6.630511761E0,-4.642076015E0,3.052643538E0
5.136045068E0,6.271588326E0,-4.508078098E0,3.210569859E0
5.138534651E0,5.945566177E0,-4.541577339E0,3.354737282E0
5.141024287E0,5.610570908E0,-4.756931305E0,3.536591768E0
5.143513870E0,5.462215900E0,-4.953142643E0,3.747160196E0
5.146003505E0,5.376074314E0,-5.145166874E0,3.938585997E0
